onset,duration,trial_type,LST_id,LST_id_orig,response_time,motor_onset,motor_duration,confidence_onset,confidence_duration,accuracy,motor_key,subject
4.522612293278144,5,Binary,26,9,1.1315253854154437,10.667349656379884,2,12.78791347000515,2,1.0,3,2
19.41681511425304,5,Quaternary,97,33,0.947313662738452,25.477987557982487,2,27.498376783843923,2,1.0,1,2
33.86012798491356,5,Ternary,48,16,1.0690114535900648,39.72089809220233,2,41.741414170996,2,1.0,3,2
48.06963330246981,5,Null,110,37,0.8981009574999916,54.2643690524128,2,56.28475791164601,2,1.0,3,2
62.88027963649438,5,Ternary,53,18,1.1366962922438688,68.89140346548811,2,70.91171496642892,2,1.0,2,2
77.52399557684839,5,Binary,29,10,1.1420398803784335,83.55166308137996,2,85.57209666910421,2,1.0,2,2
91.90040342442626,5,Quaternary,79,27,0.7530449955575023,98.14523361747706,2,100.16562504309876,2,0.0,1,2
106.47724953788564,5,Null,124,42,0.9943962652596384,112.32135534936424,2,114.34174750823875,2,1.0,2,2
127.86666714360764,5,Ternary,49,17,0.9565508293253516,133.9611923763423,2,135.9816226644216,2,1.0,2,2
142.1931609285457,5,Quaternary,96,32,0.8546189984790544,148.0706411600204,2,150.0909552273497,2,0.0,4,2
156.36919466996005,5,Ternary,68,23,0.963701155185845,162.49715371626007,2,164.51755870708075,2,1.0,2,2
170.89596393840657,5,Binary,27,9,0.7511572332732612,176.84025240344272,2,178.86064236255697,2,1.0,4,2
185.32254835353524,5,Null,123,41,0.7472504562483664,191.60079036253228,2,193.6211748222413,2,1.0,4,2
199.4318790833277,5,Binary,25,9,1.036313826985861,205.25929053558136,2,207.2796812279485,2,1.0,2,2
213.60810383739408,5,Null,140,47,0.8458899768756964,219.7192922660597,2,221.73971412172068,2,1.0,2,2
227.9511024354124,5,Quaternary,88,30,0.7022106992171757,233.72850706840472,2,235.74880683728225,2,0.0,1,2
248.67271450887893,5,Null,114,38,0.7884036007326358,254.88416771554512,2,256.9045507087467,2,1.0,1,2
262.8488384405282,5,Binary,20,7,1.3812251179224404,268.96001000435353,2,270.98040142997525,2,0.0,4,2
276.84119866766014,5,Quaternary,93,31,0.6024969615591544,282.58517022033993,2,284.60550775179763,2,0.0,4,2
291.0674192421793,5,Binary,32,11,0.9982781116523256,297.37904520347547,2,299.399378335409,2,1.0,1,2
305.9781870030565,5,Null,141,47,0.9766251226174064,311.77228012924024,2,313.80935711503844,2,1.0,3,2
320.2545753460781,5,Ternary,43,15,0.7956089206363686,326.1988330144486,2,328.21920134257016,2,1.0,1,2
334.2804801081238,5,Quaternary,74,25,1.247176030970877,340.42504259015914,2,342.4455077078019,2,1.0,4,2
348.2896344170167,5,Ternary,54,18,1.0042031701650558,354.3674843551307,2,356.38778375738184,2,1.0,3,2
369.6622462089126,5,Quaternary,94,32,1.3377787217195871,375.706742991395,2,377.7271006873343,2,0.0,2,2
384.1055286495339,5,Ternary,45,15,1.061308987509619,390.2836686629089,2,392.3039709981768,2,1.0,3,2
398.9829036590672,5,Binary,12,4,1.013338781083803,404.8103473744941,2,406.8308315567392,2,1.0,3,2
413.1924595711462,5,Quaternary,108,36,1.1274418941866315,419.0198673571304,2,421.0402554831089,2,0.0,2,2
427.6023492604236,5,Null,128,43,0.8333714988748397,433.3964489858936,2,435.41683491211006,2,1.0,3,2
441.6448904546305,5,Binary,33,11,1.0047688755857962,447.83965113520753,2,449.86003302852623,2,1.0,2,2
456.0881644628298,5,Null,111,37,,462.2996008046557,2,464.3200072619839,2,0.0,999,2
470.64833748143246,5,Ternary,39,13,0.7119798415460536,476.5926255798404,2,478.6130298374064,2,1.0,4,2
492.2047419413757,5,Null,121,41,1.202964117646843,498.0655087490232,2,500.0859361040875,2,1.0,2,2
506.3475493800906,5,Binary,10,4,0.8712143684206239,512.2417353362234,2,514.2620380381177,2,1.0,1,2
520.8408203086237,5,Quaternary,86,29,1.9457884945277328,526.6348474419538,2,528.6552319016628,2,1.0,3,2
534.9836559776159,5,Null,133,45,0.6263024175550527,541.2618785553841,2,543.2821779576352,2,1.0,4,2
549.5938167508757,5,Ternary,52,18,1.0281292464369471,555.4545699933242,2,557.4749988148978,2,1.0,1,2
563.7031434477722,5,Binary,13,5,0.947235204565004,569.6641240722693,2,571.6845118316214,2,1.0,1,2
578.1631327129344,5,Quaternary,95,32,0.8914657425393671,583.9404266245801,2,585.9608415143284,2,0.0,3,2
592.3726629611265,5,Ternary,59,20,0.8516247559891781,598.4839122498706,2,600.5042820444996,2,1.0,3,2
613.8121361474969,5,Quaternary,92,31,0.8965706565140863,619.7397709489014,2,621.7602137022986,2,0.0,1,2
628.288812439343,5,Binary,14,5,,634.3666785090427,2,636.3870714011719,2,0.0,999,2
642.8156055385425,5,Ternary,69,23,1.012961521930265,648.7765645320487,2,650.7969863877097,2,1.0,3,2
657.308952725487,5,Binary,9,3,0.9065260453444351,663.4036161765907,2,665.4239056799142,2,1.0,2,2
672.0694859184277,5,Null,117,39,0.7984121504741779,678.264232300553,2,680.2846255593086,2,1.0,2,2
686.7799243016325,5,Quaternary,84,28,1.156193148050079,692.5572405775238,2,694.5776730653652,2,0.0,3,2
700.5720651391839,5,Ternary,38,13,1.443713019232746,706.4161478531623,2,708.4365942728291,2,1.0,3,2
714.6813309760018,5,Null,144,48,0.8726027847678779,720.9428269313739,2,722.9632641853677,2,1.0,3,2
3.9317742280145462,5,Quaternary,100,34,0.8098237816411711,9.90945251137964,2,11.929732849028367,2,0.0,2,2
18.6087245368617,5,Ternary,66,22,1.4213935023599331,24.636513761548485,2,26.656960547841663,2,1.0,2,2
32.768177940039095,5,Null,137,46,0.5786192800496792,39.07987649347524,2,41.10016892981548,2,1.0,4,2
47.79583847865797,5,Binary,28,10,0.9943159739541444,54.0407735270237,2,56.06107402915586,2,1.0,1,2
62.439492825680645,5,Quaternary,102,34,0.8419425042557123,68.66772288263928,2,70.68810367607875,2,0.0,4,2
77.45052279816991,5,Ternary,61,21,0.8246153468753619,83.29463117603518,2,85.31497897304689,2,1.0,2,2
91.6933955698114,5,Null,125,42,0.7223568513945793,97.7044728371784,2,99.72486499605476,2,1.0,3,2
106.23686323037872,5,Binary,23,8,0.702214365488544,112.18114802914351,2,114.20153908813882,2,1.0,1,2
127.75985697425494,5,Ternary,62,21,0.8896043773966085,133.95469061360018,2,135.97499331549443,2,1.0,3,2
142.5370342985243,5,Quaternary,76,26,0.9354976420181628,148.53136991178872,2,150.55185959343908,2,1.0,3,2
157.1306238992238,5,Binary,19,7,0.9565152665109052,163.1919429937425,2,165.21220133377392,2,1.0,2,2
171.64081062967307,5,Null,118,40,0.5672729084835737,177.86879944608336,2,179.88924659900658,2,1.0,4,2
186.0005076198122,5,Quaternary,78,26,0.6460573787499015,192.0115859870621,2,194.0320122422454,2,1.0,1,2
200.46048771929964,5,Ternary,67,23,0.7568318855628604,206.3713797667224,2,208.39184598424615,2,1.0,1,2
215.0540358911512,5,Binary,21,7,0.5828156923835195,221.1820037364996,2,223.2023951621213,2,1.0,4,2
229.3804812813305,5,Null,131,44,0.8370106382099038,235.3413911468233,2,237.3618650635126,2,1.0,2,2
250.66967187163027,5,Binary,7,3,0.6610212586620037,256.4302314617107,2,258.45072041010826,2,1.0,4,2
264.7791320207434,5,Ternary,72,24,0.7723750360928534,270.7734229055168,2,272.79385942625777,2,1.0,2,2
279.4727425925066,5,Null,134,45,0.7669537230394781,285.4004232222833,2,287.4207537878283,2,1.0,1,2
293.5987728143009,5,Quaternary,89,30,1.012322491114901,299.3426890063074,2,301.3630796986763,2,0.0,3,2
307.6914975419695,5,Null,116,39,0.7864139161483763,313.76927012179294,2,315.78966081416,2,1.0,1,2
322.1013641337468,5,Binary,3,1,0.8270028217229992,328.29603645722455,2,330.3163879205058,2,1.0,2,2
337.01218908843293,5,Ternary,50,17,1.9476447268934864,342.8061274980337,2,344.82649619278345,2,1.0,3,2
351.1048276587626,5,Quaternary,83,28,0.7215268079271482,357.06572505893746,2,359.0861047524959,2,0.0,4,2
372.6444182390897,5,Ternary,56,19,1.454622004819612,378.60551545096496,2,380.6257550930186,2,0.0,4,2
387.3382557529476,5,Quaternary,87,29,1.1723218018560146,393.1154701065407,2,395.1358629986698,2,0.0,2,2
401.4141984975468,5,Null,126,42,0.5522555010338692,407.32507954615903,2,409.3453789484101,2,1.0,4,2
415.9074657598121,5,Quaternary,77,26,1.273910469857583,422.16900461053774,2,424.1894125343733,2,0.0,2,2
430.6179151418255,5,Binary,11,4,0.8823059342412307,436.3952174858914,2,438.4157024013912,2,1.0,2,2
444.86082824243385,5,Ternary,44,15,0.8088496537729952,451.0722638510051,2,453.0926893729357,2,1.0,2,2
459.537880106951,5,Null,132,44,0.8478935932835157,465.6658149558716,2,467.6862045483576,2,1.0,3,2
474.264994518031,5,Binary,35,12,0.5462021230796381,480.1090940968497,2,482.129484055964,2,1.0,4,2
495.80468115462463,5,Quaternary,85,29,0.6726612984348321,501.54868753686605,2,503.56898913887926,2,0.0,4,2
509.5299503321476,5,Binary,6,2,0.5764913770963176,515.424108058005,2,517.4445519112833,2,1.0,4,2
523.9065044638883,5,Ternary,70,24,0.5164675756732322,530.0178091133039,2,532.0381140149602,2,1.0,4,2
538.600176628981,5,Null,142,48,0.7539971258083824,544.7949494082477,2,546.8153690641466,2,1.0,1,2
552.9933851576043,5,Ternary,51,17,,558.9377634462489,2,560.9580720141748,2,0.0,999,2
567.0025303008242,5,Quaternary,73,25,1.4479431612508051,572.9301192738567,2,574.9505059333278,2,0.0,2,2
581.4792025597744,5,Null,135,45,0.8251748196362314,587.7574537344462,2,589.7778297617351,2,1.0,2,2
595.6386288325557,5,Binary,22,8,0.5420530056253483,601.7331811956865,2,603.7536727104725,2,1.0,4,2
617.161615610521,5,Null,120,40,0.7672488577536569,622.8888477088585,2,624.9092222696399,2,1.0,2,2
630.820116516823,5,Ternary,57,19,0.5425589508467965,636.6141264186845,2,638.6345123449009,2,1.0,4,2
644.829293923216,5,Quaternary,82,28,0.9864184623238544,650.7067558233412,2,652.7272392723316,2,0.0,3,2
659.4228996555012,5,Null,130,44,0.6576633222139208,665.5841652958079,2,667.604557088056,2,1.0,1,2
673.9161841492332,5,Binary,18,6,0.8964998975079652,680.1108773704473,2,682.1313204904727,2,1.0,1,2
688.6433172582892,5,Quaternary,104,35,1.1528330118435406,694.6710903513886,2,696.6915749002619,2,0.0,1,2
702.9029214184793,5,Ternary,37,13,0.9179615072644084,709.0475803234076,2,711.0680040122024,2,1.0,2,2
717.1792500013034,5,Binary,36,12,0.7565334512091795,723.3405831009732,2,725.3609701270725,2,1.0,1,2
4.661857950948615,5,Quaternary,91,31,0.8161216997868905,10.43926075080526,2,12.459558686548917,2,0.0,2,2
18.420537844540377,5,Binary,34,12,0.8933348068458145,24.26464402264537,2,26.28503288187858,2,1.0,3,2
32.479739668291586,5,Null,109,37,0.7577906150945637,38.223700222162734,2,40.24407514957056,2,1.0,2,2
46.80617002676445,5,Ternary,41,14,0.7674999972296064,52.63358807830082,2,54.65397180475702,2,1.0,3,2
61.0491802835204,5,Binary,5,2,0.8963107179879444,66.89327949571089,2,68.91357999784304,2,1.0,3,2
75.32544214023437,5,Null,113,38,0.5020639017748181,81.35316793845777,2,83.37359566014857,2,1.0,4,2
89.88564815526479,5,Quaternary,99,33,0.8722944514811388,95.84654482218684,2,97.8670271712981,2,1.0,3,2
104.495817727573,5,Ternary,65,22,1.2939631321496563,110.80746568648829,2,112.82787397694848,2,1.0,1,2
126.70343161657364,5,Null,139,47,0.592060924765974,132.9983247228156,2,135.0188085384325,2,1.0,1,2
140.9631153348164,5,Quaternary,90,30,0.9016275423527986,146.6902942722445,2,148.7107113617567,2,1.0,1,2
155.0056088675192,5,Binary,16,6,0.6166986239877588,161.28382484600297,2,163.30417740916528,2,0.0,1,2
169.7994622196602,5,Ternary,64,22,0.7590375134350325,175.67706600442398,2,177.697532588576,2,1.0,4,2
184.0090822914608,5,Quaternary,103,35,1.0226976678277424,189.8699095925585,2,191.8902683883825,2,1.0,2,2
197.71768057388908,5,Null,129,43,0.5512329784069152,203.661959139994,2,205.6822699076838,2,1.0,4,2
211.94384138820897,5,Ternary,46,16,0.7509581548220012,218.07184992915427,2,220.0922010258073,2,1.0,1,2
226.7378105944772,5,Binary,31,11,0.5243661871827499,233.01604783732543,2,235.036439262949,2,1.0,4,2
248.6114570076934,5,Ternary,58,20,0.8675279342023714,254.6557840418864,2,256.67631551901286,2,1.0,2,2
263.0713227195665,5,Quaternary,107,36,,269.11579237164915,2,271.1362446573512,2,0.0,999,2
277.8820519112851,5,Ternary,42,14,0.719349776958552,283.8931225793676,2,285.9134128159458,2,1.0,4,2
292.0747726793816,5,Null,112,38,0.9322529933015176,298.03575916991394,2,300.056241152397,2,1.0,3,2
306.3010797778661,5,Quaternary,105,35,0.5180851338773209,312.1284794980565,2,314.1487770671738,2,1.0,4,2
320.2934315725797,5,Binary,2,1,0.6812847314686223,326.2878097145731,2,328.3082469685651,2,1.0,1,2
334.7200651157218,5,Null,136,46,0.780665205209516,340.5140900492879,2,342.5345001728856,2,1.0,3,2
349.129897244562,5,Binary,4,2,0.8514847044825729,355.2078355397789,2,357.2281587727812,2,1.0,2,2
370.6863801626787,5,Binary,1,1,0.74204728623954,376.54717300084303,2,378.567512732061,2,1.0,4,2
384.7122097661959,5,Quaternary,80,27,0.5312969034821435,390.7565917944339,2,392.777119605289,2,1.0,4,2
399.0385843973672,5,Ternary,47,16,0.8878431014163652,405.11647099817856,2,407.1368008304671,2,1.0,2,2
413.7656416146383,5,Null,143,48,0.7864608443996985,419.9604961517216,2,421.98082268437065,2,1.0,2,2
428.3425284236946,5,Ternary,40,14,,434.2534978294061,2,436.27379063237095,2,0.0,999,2
442.1846771803903,5,Binary,30,10,0.7890939593235089,448.2960287580572,2,450.31632852693656,2,1.0,3,2
456.41087869030525,5,Null,119,40,0.697135482023441,462.2215554543691,2,464.242030104313,2,1.0,1,2
470.5536069375921,5,Quaternary,101,34,0.7982479015881836,476.3809809938976,2,478.4014076157073,2,0.0,3,2
491.52558710454105,5,Ternary,71,24,0.6687600208097138,497.7203305536496,2,499.74074104387546,2,1.0,1,2
506.2694153060729,5,Quaternary,98,33,1.0627769619095488,512.146923034572,2,514.167302361504,2,1.0,2,2
520.4790276787098,5,Binary,24,8,0.7879940784005157,526.7572561225097,2,528.7775896210696,2,0.0,3,2
535.0891829525644,5,Null,138,46,0.6166289648645034,541.2672181106245,2,543.2876212683077,2,1.0,1,2
549.3154214918031,5,Quaternary,81,27,0.4963302225442021,555.3598786785733,2,557.3802103439994,2,0.0,4,2
563.541605403625,5,Ternary,55,19,1.2776064363715705,569.402390542622,2,571.4227929670524,2,1.0,2,2
577.8013169855185,5,Binary,17,6,1.918667264184478,583.7789296426563,2,585.7992745066513,2,1.0,4,2
592.41145466128,5,Null,115,39,0.5038402094614867,598.4893240306228,2,600.5097161894992,2,1.0,4,2
613.9678437228904,5,Ternary,63,21,0.4882449979013472,620.262771658694,2,622.283258773954,2,1.0,4,2
628.5280878671256,5,Null,122,41,1.0769855902544805,634.2886096946277,2,636.3090088194185,2,1.0,3,2
642.7876967934644,5,Binary,8,3,0.7485288845018658,648.9156525401231,2,650.9359486427311,2,1.0,1,2
657.3979147605351,5,Quaternary,106,36,0.8775760796597751,663.5592012985762,2,665.5795952905864,2,1.0,2,2
672.2252660859631,5,Binary,15,5,0.7667143156249949,678.1026755584317,2,680.1230600181407,2,1.0,3,2
686.5348737657732,5,Null,127,43,0.7862745979000465,692.3956662373057,2,694.4160580295575,2,1.0,2,2
700.5273135509597,5,Ternary,60,20,0.7785552669774916,706.8389787413398,2,708.859333137636,2,0.0,1,2
715.4882560462502,5,Quaternary,75,25,0.8199206884819432,721.7831465861018,2,723.8036501995775,2,0.0,4,2
4.815200863951759,5,Binary,29,10,0.8279777595635096,10.859737772057995,2,12.996930455035908,2,1.0,4,4
19.44224784150356,5,Quaternary,79,27,,25.419856383650767,2,27.440317543412675,2,0.0,999,4
33.651815520723176,5,Ternary,72,24,0.6161762140072824,39.77979813374259,2,41.81679129759141,2,1.0,4,4
47.89473391146021,5,Null,122,41,1.3295318970049266,54.05615412690531,2,56.07644847078336,2,0.0,3,4
62.6051690332788,5,Ternary,43,15,1.4862262734386604,68.68305848604359,2,70.703553742238,2,1.0,3,4
77.5160607540056,5,Binary,21,7,1.504345044882939,83.61061529693325,2,85.63098846590219,2,1.0,2,4
91.7089941398408,5,Quaternary,99,33,1.6481000081112145,97.80348525607042,2,99.82403770628298,2,1.0,1,4
105.86848589033616,5,Null,119,40,1.4637574570115248,111.6124106758034,2,113.63270795271092,2,1.0,3,4
127.00749814965457,5,Ternary,57,19,0.8633852559432853,132.901696549834,2,134.92211591397063,2,1.0,2,4
141.0834829683081,5,Quaternary,104,35,,147.07778483100265,2,149.09824085796572,2,0.0,999,4
155.97757284650652,5,Ternary,50,17,,161.82177230991147,2,163.8421696763471,2,0.0,999,4
170.6380632925393,5,Binary,10,4,1.106592916421505,176.84944614856067,2,178.86992050694244,2,1.0,3,4
185.04787639275676,5,Null,121,41,0.6928997887225705,190.9087413129528,2,192.92922667018505,2,0.0,1,4
199.0570344014959,5,Binary,13,5,1.046787405408395,205.05149134796736,2,207.0719840377642,2,1.0,3,4
213.300131706852,5,Null,132,44,0.931787101108057,219.31124054486645,2,221.33153672188564,2,1.0,1,4
227.6766850193744,5,Quaternary,87,29,1.2524732240090088,233.7210756427812,2,235.74157236549215,2,0.0,4,4
248.69884403487595,5,Null,142,48,1.3469049464474665,254.50955676765807,2,256.52995486735017,2,1.0,3,4
263.1587631273396,5,Binary,16,6,0.8179926373450144,269.3201342145876,2,271.34060050714834,2,1.0,1,4
277.35172730994964,5,Quaternary,86,29,1.0715153855308015,283.61324622173925,2,285.6336802510086,2,1.0,1,4
292.49625219265,5,Binary,30,10,0.6365229857328814,298.42384786614275,2,300.44425659805347,2,1.0,1,4
306.87288653002906,5,Null,112,38,0.7042953300806403,312.7337173537926,2,314.7541066544036,2,1.0,1,4
321.049061702106,5,Ternary,44,15,1.307250794274296,327.2104346224987,2,329.23073849871435,2,1.0,4,4
335.8763830642929,5,Quaternary,77,26,,341.87073478843377,2,343.8911365544118,2,0.0,999,4
350.286235393738,5,Ternary,42,14,1.0711986186652211,356.447747266262,2,358.46814463269766,2,1.0,2,4
372.1432921456035,5,Quaternary,83,28,1.744804092864797,378.12108913470365,2,380.1414692696089,2,1.0,3,4
386.6201098704696,5,Ternary,64,22,0.7733446408565214,392.7981860103719,2,394.8185822769228,2,1.0,2,4
401.5643453367738,5,Binary,12,4,0.7974519192357548,407.7757384583856,2,409.79622894841305,2,1.0,1,4
416.0077089609367,5,Quaternary,100,34,1.4687146384894731,421.935318932934,2,423.95570750028855,2,0.0,4,4
430.66810555012125,5,Null,123,41,1.03246763658899,436.7960144708486,2,438.81642796892993,2,1.0,2,4
445.4285810377187,5,Binary,11,4,0.5935534136842762,451.38959818199146,2,453.410037344056,2,1.0,4,4
459.97208698699615,5,Null,137,46,,465.86639904195545,2,467.8868085071263,2,0.0,999,4
474.46563909477845,5,Ternary,47,16,0.7355885234792368,480.2428137689749,2,482.26334862102885,2,1.0,4,4
495.6880310659108,5,Null,140,47,0.811765455371642,501.8995998024875,2,503.919985070188,2,1.0,4,4
510.2316448039164,5,Binary,4,2,0.8278795031765185,516.4931065216842,2,518.5134855567048,2,1.0,4,4
525.0590383918789,5,Quaternary,81,27,1.4828151635738325,530.9698358891255,2,532.9903267457848,2,1.0,3,4
539.402021015896,5,Null,118,40,1.5514916133470251,545.2127916759528,2,547.2332433033771,2,1.0,2,4
553.7285794245545,5,Ternary,55,19,0.7919084990753618,559.7229989749358,2,561.7434344707144,2,1.0,4,4
568.5058868181986,5,Binary,3,1,0.8600867009699869,574.8175516847223,2,576.8379670159447,2,1.0,4,4
583.0995079254317,5,Quaternary,93,31,1.1044694052070554,589.3777637865351,2,591.3981142245466,2,0.0,2,4
597.8432515965105,5,Ternary,39,13,,603.6039246967703,2,605.6244199529683,2,0.0,999,4
619.5167368166221,5,Quaternary,89,30,1.897599377141887,625.2772486004251,2,627.2977673208334,2,0.0,4,4
633.9433631248467,5,Binary,27,9,0.7770087242606678,640.1714319688435,2,642.1919774531198,2,1.0,2,4
648.4033775406715,5,Ternary,71,24,0.9114439956647402,654.5146855311868,2,656.5350678658615,2,1.0,3,4
662.4291903739795,5,Binary,28,10,0.7729875448749226,668.4236894827081,2,670.4439874928685,2,1.0,3,4
676.4885515314709,5,Null,131,44,0.881560854773852,682.4997410277174,2,684.520078267109,2,1.0,4,4
690.8650736805866,5,Quaternary,98,33,,697.0597379187093,2,699.0802812032125,2,0.0,999,4
705.5923088117925,5,Ternary,38,13,0.8065956294703938,711.6200002486003,2,713.640446743233,2,1.0,1,4
720.035538616623,5,Null,127,43,1.102018861532997,725.9632453784943,2,727.9836167143185,2,1.0,4,4
3.836335886560846,5,Quaternary,92,31,1.9945392039080616,9.797243408964276,2,11.8176891703406,2,0.0,2,4
18.26292626520444,5,Ternary,51,17,1.299046385789552,24.040299651947866,2,26.06066842137443,2,0.0,4,4
32.105232093348604,5,Null,117,39,1.3512432593270205,37.865729578647006,2,39.88621750227685,2,1.0,4,4
46.33135854052307,5,Binary,24,8,0.716546948562609,52.259047704235854,2,54.27946376871478,2,1.0,4,4
60.84155117437331,5,Quaternary,82,28,1.8876432185606973,66.73576423968552,2,68.75618983650202,2,0.0,1,4
75.06784553731632,5,Ternary,61,21,0.7886895024494152,81.27928742049698,2,83.29971008428402,2,1.0,4,4
89.66147141071633,5,Null,138,46,1.1364364614528313,95.58907148374784,2,97.6093694939118,2,1.0,3,4
104.48873851191092,5,Binary,1,1,0.9015083682643308,110.3496492606464,2,112.3700532263938,2,1.0,2,4
126.09532359644436,5,Ternary,52,18,1.13182317733299,132.0563018781177,2,134.07673920703746,2,1.0,3,4
140.7724890316058,5,Quaternary,76,26,1.106752766365389,146.53303087893073,2,148.55352796826628,2,1.0,1,4
154.8818813891667,5,Binary,36,12,0.8828711843780184,160.69254866003757,2,162.7129595917213,2,1.0,3,4
169.02455809851745,5,Null,109,37,0.7120520853932248,175.18603110843833,2,177.20642957475866,2,1.0,4,4
183.30098045140403,5,Quaternary,107,36,,189.44559772443608,2,191.46610727913867,2,0.0,999,4
198.14509522366643,5,Ternary,45,15,0.5764399370855244,203.95580758982032,2,205.97611843197228,2,1.0,1,4
211.9205221806733,5,Binary,31,11,0.7942545536789112,218.1486907475737,2,220.16908701412467,2,1.0,2,4
226.8814795645303,5,Null,139,47,1.0874204551910225,233.02613533353724,2,235.04655359778556,2,1.0,3,4
248.3376348506863,5,Binary,33,11,0.8219500234008592,254.4155514339473,2,256.43603385815004,2,1.0,4,4
262.84787917913127,5,Ternary,62,21,0.9132676049157452,268.85897445189767,2,270.879379884158,2,1.0,1,4
276.9905683538418,5,Null,126,42,0.9118285887670936,283.1019467369988,2,285.1223499694861,2,1.0,2,4
291.7678456839676,5,Quaternary,94,32,0.7283578798051167,297.662055816254,2,299.6824601486296,2,1.0,3,4
305.6602593374992,5,Null,125,42,0.7770736174716149,311.6379551371865,2,313.65841409717905,2,1.0,1,4
319.73624965557974,5,Binary,6,2,0.9012755592812028,325.6303659310179,2,327.650812425647,2,1.0,2,4
333.76214791328675,5,Ternary,67,23,0.6374791523849126,339.5728709116629,2,341.59317038833615,2,1.0,3,4
348.07179889046165,5,Quaternary,103,35,0.7874506653679418,354.09959078342945,2,356.1199910828909,2,0.0,1,4
369.4946844899605,5,Ternary,70,24,0.8679556445458729,375.60596608323976,2,377.6263997458809,2,1.0,2,4
384.05498898211226,5,Quaternary,105,35,,390.0660868212799,2,392.08648345445545,2,0.0,999,4
398.3146553210136,5,Null,144,48,0.5577862549289421,404.5093261584443,2,406.5298155485871,2,1.0,1,4
412.9248960564983,5,Quaternary,73,25,,419.1195984239639,2,421.1401219105428,2,0.0,999,4
427.9193049746609,5,Binary,22,8,0.7428202670380415,434.08067789505367,2,436.1010334658604,2,1.0,2,4
442.2289724501097,5,Ternary,69,23,0.6563649102681666,448.156665646733,2,450.1770681459639,2,1.0,1,4
456.2214602358872,5,Null,128,43,0.7419407257075363,462.4497230262641,2,464.47008519638257,2,1.0,1,4
470.83186998702513,5,Binary,18,6,0.7459938017564127,476.8763511676261,2,478.89680756122107,2,1.0,3,4
491.9541944252233,5,Quaternary,74,25,1.6394615116987552,498.1488535305471,2,500.1693575858226,2,1.0,2,4
506.9484412936654,5,Binary,8,3,0.6569386835872137,513.1600078304728,2,515.1804403932292,2,1.0,3,4
521.3750767675956,5,Ternary,59,20,1.2981298149934446,527.1524112917396,2,529.1728093914317,2,1.0,1,4
535.3008865945558,5,Null,120,40,0.5436919625281007,541.512355608229,2,543.5326495854788,2,1.0,4,4
550.3620442307983,5,Ternary,68,23,0.7239876702624315,556.6568782911563,2,558.6773574157087,2,1.0,4,4
565.0558098629153,5,Quaternary,91,31,0.9078070427531202,571.3006288548495,2,573.3210511520083,2,1.0,3,4
579.6828113785559,5,Null,130,44,0.7767429187297239,585.9443731858591,2,587.964663496823,2,1.0,3,4
593.908985487411,5,Binary,7,3,0.9365756335610058,599.7031676826191,2,601.7235016223567,2,1.0,2,4
614.9645205117813,5,Null,115,39,1.4021074389347632,621.142592618773,2,623.1629929182345,2,1.0,2,4
629.391245443021,5,Ternary,46,16,0.784234601767821,635.6361065972087,2,637.6564097401679,2,1.0,3,4
644.1183372225532,5,Quaternary,80,27,1.059793911597808,650.1962805696785,2,652.2165983777704,2,1.0,2,4
658.3779987952839,5,Null,116,39,1.1750647875960567,664.255513040629,2,666.2759280052232,2,1.0,3,4
672.7712538608066,5,Binary,19,7,0.8114277906934149,678.8658227022388,2,680.8863139255227,2,1.0,4,4
687.5151779130174,5,Quaternary,96,32,0.7368456919830351,693.5930083386193,2,695.6134841635176,2,1.0,1,4
702.1589152780871,5,Ternary,53,18,0.8266018034883018,708.0029640572538,2,710.0234325495803,2,1.0,4,4
716.7357517743258,5,Binary,25,9,0.6152310462057358,722.91390087326,2,724.9342912737593,2,1.0,4,4
4.152059695185017,5,Quaternary,95,32,0.7832549709019077,10.280129565740936,2,12.30052509903544,2,1.0,4,4
18.662149673105887,5,Binary,35,12,0.946053708819818,24.639970493048168,2,26.660370059253182,2,1.0,2,4
32.75491946938564,5,Null,133,45,0.7668538531252125,38.66577232750933,2,40.686173726855486,2,1.0,2,4
46.89775419553917,5,Ternary,41,14,0.7270772470947122,52.94223757590953,2,54.962630909434665,2,1.0,1,4
61.37446486493718,5,Binary,5,2,0.5277450972353108,67.35219769408286,2,69.37251146926064,2,1.0,1,4
75.66743901983864,5,Null,110,37,0.7359720166969055,81.96243146363122,2,83.98284019554194,2,1.0,1,4
90.29450836171964,5,Quaternary,78,26,0.7209967164490081,96.60617909429492,2,98.6266285219499,2,1.0,3,4
105.6896214995504,5,Ternary,65,22,1.896425799903227,111.81750292315336,2,113.83789662330672,2,1.0,3,4
127.2460133343011,5,Null,113,38,0.8583452164639311,133.45745558410636,2,135.47794937378785,2,1.0,2,4
141.8062972952648,5,Quaternary,75,25,0.9885873598032048,147.90086173715463,2,149.92127890152187,2,1.0,3,4
156.650296212978,5,Binary,26,9,0.7098270181304542,162.61128146058763,2,164.6317723172433,2,1.0,1,4
171.2940790399589,5,Ternary,60,20,0.7712541261898878,177.28847512612992,2,179.30877826908545,2,1.0,2,4
185.42015408584484,5,Quaternary,106,36,,191.3143689842982,2,193.33467066074445,2,0.0,999,4
199.746606172288,5,Null,129,43,0.8910697268147487,205.90798459210416,2,207.9283650936377,2,1.0,2,4
214.22333077356237,5,Ternary,49,17,0.6130980026537145,220.33452987546843,2,222.35492027596771,2,1.0,4,4
228.63327585997104,5,Binary,17,6,0.7092763424006989,234.61097275954307,2,236.6313770919187,2,1.0,2,4
249.90578225580248,5,Ternary,48,16,0.6869886403583223,256.11734365981465,2,258.1376515689408,2,1.0,1,4
264.08208391465087,5,Quaternary,90,30,1.4588772674760548,269.99296426989895,2,272.01328684415785,2,1.0,3,4
278.3583240532644,5,Ternary,54,18,0.7563781822136662,284.55308324811995,2,286.5735810707156,2,1.0,1,4
293.08559548067205,5,Null,141,47,1.032908323828451,299.01321388512224,2,301.033557723822,2,1.0,1,4
307.77939887550383,5,Quaternary,88,30,1.1317278539718243,313.5900804448793,2,315.61052217334145,2,0.0,4,4
321.955594945397,5,Binary,2,1,0.7258208118473704,327.7495912600498,2,329.7699013689453,2,1.0,3,4
336.2987198211995,5,Null,124,42,0.8064999394773622,342.5435193818339,2,344.5640190375707,2,1.0,4,4
350.8589128583408,5,Binary,14,5,0.5933891642016533,357.0702993806444,2,359.0907854711332,2,1.0,4,4
372.33186998702513,5,Binary,15,5,0.8511996305569483,378.0925346548356,2,380.11293642081,2,1.0,1,4
386.9088124388472,5,Quaternary,102,34,1.8067100175030648,393.1035752999851,2,395.1239821987547,2,0.0,1,4
401.4522340636104,5,Ternary,66,22,0.7115153415361419,407.2963503023857,2,409.3168026630701,2,1.0,4,4
415.31125557662745,5,Null,136,46,0.6066699083676212,421.4058412829618,2,423.42618145537926,2,1.0,1,4
429.97164739964137,5,Ternary,40,14,0.5665937669982668,435.7155604530053,2,437.735890726457,2,1.0,4,4
444.0810294916082,5,Binary,23,8,0.6168816068893648,450.3258888126584,2,452.3463166092442,2,1.0,3,4
458.67464069987545,5,Null,135,45,0.9715912042665876,464.7858134045455,2,466.8062708980251,2,1.0,4,4
473.6856872110802,5,Quaternary,85,29,1.2844982075293956,479.64659619999657,2,481.66708522351473,2,0.0,3,4
495.0584763506668,5,Ternary,37,13,0.6274738656065892,501.0695334940901,2,503.0898725666229,2,1.0,4,4
509.8858732382869,5,Quaternary,84,28,0.6011451862505055,515.6464818119639,2,517.6668777118866,2,1.0,4,4
523.6613097276313,5,Binary,9,3,0.5360543614187918,529.7892560444452,2,531.8096798081206,2,1.0,4,4
538.7224204354497,5,Null,134,45,0.6030406546560698,544.933889449123,2,546.9542813161352,2,1.0,3,4
552.9819808187676,5,Quaternary,101,34,0.7613243648447678,558.7593135097668,2,560.7798043664225,2,1.0,3,4
567.0246688202678,5,Ternary,56,19,0.9530577761979656,572.902085909107,2,574.922592897412,2,1.0,1,4
581.3510068853066,5,Binary,32,11,0.7521439917800308,587.5458001765946,2,589.5662430049415,2,1.0,3,4
595.6441687539082,5,Null,111,37,0.8060709843448421,601.9224158159341,2,603.9428461789175,2,1.0,2,4
617.3509082622913,5,Ternary,58,20,0.7429896493231354,623.2785164011439,2,625.298950063785,2,1.0,4,4
631.6940862992014,5,Null,143,48,0.5196902731040609,637.7552505347558,2,639.7756200374388,2,1.0,4,4
646.2542756700605,5,Binary,20,7,0.6310741556844732,652.0315999286067,2,654.0519030715659,2,1.0,1,4
660.6141136643382,5,Quaternary,108,36,1.050907941069454,666.892281534645,2,668.9127349952141,2,1.0,2,4
674.7402462708669,5,Binary,34,12,0.6729255113641557,680.7679894022694,2,682.7884256313082,2,1.0,1,4
689.2670068383777,5,Null,114,38,0.7223807383488747,695.3281809728978,2,697.3485959374921,2,1.0,3,4
703.7769765622106,5,Ternary,63,21,0.701919578586967,709.5043638441675,2,711.524826470446,2,1.0,2,4
717.7194382807174,5,Quaternary,97,33,0.5315228354156716,723.964363228235,2,725.984789558308,2,1.0,3,4
4.730044990996248,5,Binary,14,5,1.018924420583062,10.874695463506214,2,13.028639929783822,2,1.0,3,5
19.27351118505612,5,Quaternary,102,34,1.0664356100387522,25.05082196154399,2,27.07120825438324,2,0.0,1,5
33.28274541862629,5,Ternary,70,24,0.656774329370819,39.39400460629986,2,41.41433773823519,2,1.0,1,5
48.19353591038089,5,Null,120,40,0.656422734100488,54.02089383509156,2,56.04126362972602,2,1.0,3,5
62.58675030503218,5,Ternary,58,20,0.5515303904467146,68.39744210080244,2,70.4178445252328,2,1.0,3,5
76.59589361511462,5,Binary,15,5,0.5572314398814342,82.80725186539348,2,84.82764145788678,2,1.0,4,5
91.02238417373884,5,Quaternary,85,29,0.7312523992077331,96.79979283962894,2,98.82009774128528,2,1.0,3,5
105.4156744601787,5,Null,139,47,1.0389957808583858,111.64372706968425,2,113.66411776204768,2,1.0,2,5
126.80509353240632,5,Ternary,54,18,1.018032050531474,132.63249581898708,2,134.65290814234322,2,1.0,4,5
141.38185678816808,5,Quaternary,77,26,0.5313758058546227,147.292753968366,2,149.31323448434705,2,1.0,1,5
155.9420283402651,5,Ternary,37,13,0.8665956793774967,161.7361064347424,2,163.7565161917155,2,1.0,3,5
170.3185744062066,5,Binary,27,9,0.4829117528934148,176.17941050635272,2,178.19976196963398,2,1.0,1,5
184.7117092428089,5,Null,117,39,0.794004271941958,190.82305788746453,2,192.843360955987,2,1.0,3,5
199.0882974708584,5,Binary,20,7,0.6210289327354985,205.19945216984345,2,207.2199059220511,2,1.0,4,5
214.0658903301373,5,Null,122,41,0.4761999128895695,219.8598159077956,2,221.8802011007574,2,1.0,4,5
228.5758292207538,5,Quaternary,80,27,1.068409896288358,234.35321258938347,2,236.37367147436453,2,1.0,1,5
249.4310603277336,5,Null,143,48,0.7362231277147657,255.54232024865632,2,257.5627146072948,2,1.0,3,5
264.0413248564291,5,Binary,13,5,0.9265542212015134,270.31952873621776,2,272.3399388598191,2,1.0,2,5
278.684922009641,5,Quaternary,91,31,,284.8964133455156,2,286.9167116478857,2,0.0,999,5
293.2284574962032,5,Binary,35,12,0.6064870404661633,299.17278262393665,2,301.19310915657843,2,1.0,1,5
307.47134969907347,5,Null,133,45,0.6031386363247293,313.63270589624153,2,315.6529653361504,2,1.0,1,5
322.4489465912484,5,Ternary,66,22,,328.2596607512605,2,330.2800316457724,2,0.0,999,5
336.6918560255872,5,Quaternary,93,31,0.8314724487208878,342.7195356288066,2,344.74002861010376,2,1.0,4,5
351.0517198309972,5,Ternary,55,19,0.5308013013782329,357.1127727543353,2,359.133170045985,2,1.0,3,5
372.49106909745024,5,Quaternary,79,27,0.436295499872358,378.2182949631315,2,380.2386786895877,2,1.0,4,5
386.3499382438822,5,Ternary,41,14,0.4059842482383828,392.4779871137944,2,394.4984005370352,2,1.0,4,5
400.80991027758137,5,Binary,24,8,0.9376303886892856,406.7709851252075,2,408.7913820502363,2,1.0,3,5
415.4202484982961,5,Quaternary,99,33,0.4011220413231058,421.49803977609554,2,423.5184213027824,2,1.0,4,5
430.1639733110205,5,Null,144,48,0.5319877062720479,435.9079279988582,2,437.9284030154304,2,1.0,4,5
444.0563825928402,5,Binary,31,11,0.8044322429414024,449.9339148853469,2,451.95416442633,2,1.0,1,5
458.3325967880519,5,Null,110,37,0.496567507761938,464.14332597977045,2,466.1636642444864,2,1.0,4,5
472.8092727132753,5,Ternary,39,13,0.5585219668209902,478.8370381072091,2,480.8573811380702,2,1.0,1,5
494.48262311187136,5,Null,132,44,0.4967082925140857,500.27662971409154,2,502.2969690786777,2,1.0,4,5
508.72543172378937,5,Binary,32,11,0.8328762633973383,514.9870695638019,2,517.0073641999043,2,1.0,2,5
523.1354270016382,5,Quaternary,82,28,0.9063541748619172,528.879246404118,2,530.8996832914854,2,1.0,1,5
537.1277831958723,5,Null,137,46,0.9690517868002644,543.2891214283154,2,545.3095286188982,2,1.0,1,5
551.721436223037,5,Ternary,57,19,0.6681995257313247,557.9494712344458,2,559.9698285637569,2,1.0,1,5
566.6154194344563,5,Binary,33,11,0.5174887093598954,572.3928673294286,2,574.4132466563606,2,1.0,3,5
580.5244020886021,5,Quaternary,106,36,0.8176385131373536,586.5523137666969,2,588.5725603746614,2,1.0,3,5
594.6003422668073,5,Ternary,60,20,0.4625529570694198,600.7618487810396,2,602.7820843901936,2,1.0,1,5
616.5908704589601,5,Quaternary,75,25,1.45144525966316,622.3848796275634,2,624.4052252248148,2,1.0,2,5
630.9507551621064,5,Binary,11,4,0.7968602960609132,637.1120197025302,2,639.1325046180355,2,1.0,3,5
645.7446561757533,5,Ternary,44,15,0.6375542769310414,651.4719374021079,2,653.4921920758716,2,1.0,3,5
659.5200663580108,5,Binary,8,3,0.6032871202551178,665.3307365227884,2,667.3510773538874,2,1.0,2,5
673.5959148794791,5,Null,127,43,0.8373098833835684,679.5902900884612,2,681.6106804141964,2,1.0,3,5
688.03928861022,5,Quaternary,81,27,0.913061981962528,694.3341542194321,2,696.3545086157319,2,1.0,2,5
702.6996387829713,5,Ternary,50,17,0.6031610005738912,708.5937279495847,2,710.6141828016771,2,1.0,4,5
717.1596449129793,5,Null,121,41,0.7044318029875285,722.9869181468603,2,725.0073044397068,2,1.0,3,5
4.15215032438573,5,Quaternary,108,36,0.7154786403189064,10.263464872732584,2,12.28386766379117,2,1.0,1,5
18.896056984092866,5,Ternary,63,21,0.6064885069790762,25.07405694596673,2,27.094488333925256,2,1.0,1,5
33.55633236494759,5,Null,140,47,0.5160757290068432,39.75105418306339,2,41.771532499275054,2,1.0,3,5
47.91619543710112,5,Binary,26,9,0.5465416972219828,54.21118093334371,2,56.23151553178468,2,1.0,4,5
62.57657970616856,5,Quaternary,94,32,0.5311015688712359,68.77129272523598,2,70.79154593248677,2,1.0,2,5
77.53744484316849,5,Ternary,48,16,0.8033330952748656,83.81561096038058,2,85.83607241175923,2,0.0,1,5
91.7134778513282,5,Null,134,45,0.7215620816859882,97.54091276770488,2,99.56123783384828,2,1.0,2,5
105.7561297668799,5,Binary,19,7,0.5713630765603739,111.95077239357488,2,113.97116125280444,2,1.0,3,5
126.89507442380273,5,Ternary,47,16,0.4362676362216007,133.03962847342336,2,135.06011265566485,2,1.0,3,5
141.0710935001407,5,Quaternary,107,36,0.5916635786925326,147.0488480419153,2,149.06916687539342,2,1.0,4,5
155.38079027030471,5,Binary,29,10,0.5014920412650099,161.24158127533155,2,163.26198846591433,2,1.0,3,5
169.7072866216331,5,Null,116,39,0.4666089512757025,175.73503625060405,2,177.75534885142406,2,1.0,2,5
183.96690251388645,5,Quaternary,98,33,0.4516157412072061,189.9445734647088,2,191.96497332274885,2,1.0,3,5
198.71073181529937,5,Ternary,62,21,1.441212700839969,204.62162642910695,2,206.6419177655625,2,0.0,3,5
213.13723410598325,5,Binary,28,10,0.5518768529364024,218.91454011631868,2,220.9349931352699,2,1.0,2,5
227.28007747414085,5,Null,118,40,0.5211806429797434,233.52479107981344,2,235.54517847253737,2,1.0,1,5
248.80303382207055,5,Binary,16,6,0.3562029045715462,255.11462055427543,2,257.1349716509285,2,1.0,4,5
263.91422371724184,5,Ternary,71,24,0.7814505977512454,269.99201279527915,2,272.01238149002893,2,1.0,2,5
278.15708585669927,5,Null,115,39,0.5035392862846493,284.3684785699152,2,286.3888798944681,2,1.0,1,5
292.75060506501904,5,Quaternary,104,35,0.5981972379813669,298.49451282461087,2,300.5149225815767,2,1.0,4,5
306.97681427410134,5,Null,111,37,0.5188085664631217,313.0713776360426,2,315.0917785939673,2,1.0,1,5
321.4034023554996,5,Binary,9,3,0.5567368600895861,327.715044448385,2,329.735409843488,2,1.0,3,5
336.53136433481995,5,Ternary,46,16,0.8760036941312137,342.325383035728,2,344.3456666730199,2,1.0,2,5
351.0080699568207,5,Quaternary,74,25,0.7044483011995908,356.9855913238425,2,359.00611106890574,2,1.0,1,5
372.73131132056005,5,Ternary,56,19,0.4766757947072619,378.7591449071042,2,380.7795858273676,2,1.0,4,5
387.25817151249066,5,Quaternary,88,30,0.4165728018560912,393.569864199897,2,395.5901969652041,2,1.0,4,5
401.8349871959144,5,Null,141,47,0.4366056662984192,407.6624015811831,2,409.6827332466128,2,1.0,4,5
416.2114291398029,5,Quaternary,76,26,0.4661327028370579,422.0054423413021,2,424.025823501368,2,1.0,4,5
430.78836654337647,5,Binary,6,2,0.6329890378619893,437.0833205096933,2,439.10368223853584,2,1.0,1,5
445.4486217597441,5,Ternary,68,23,0.4521022551925853,451.1926464733406,2,453.2129462422163,2,1.0,3,5
459.4745936145264,5,Null,113,38,0.6332321115405648,465.7361185334303,2,467.75641463603824,2,1.0,1,5
473.9178302267756,5,Binary,3,1,0.6875632959490758,479.8954139203852,2,481.91582734361873,2,1.0,3,5
495.3740611988396,5,Quaternary,89,30,0.7326646463116049,501.5521344861045,2,503.572401625177,2,1.0,1,5
509.8007017078926,5,Binary,2,1,0.6870489183129393,515.6614424850195,2,517.6817693842968,2,1.0,2,5
523.8431354803979,5,Ternary,72,24,0.4163077305565821,529.7706907237443,2,531.7910352211184,2,1.0,3,5
538.1193973371119,5,Null,109,37,1.0989975846678135,544.0636902016704,2,546.0840460644758,2,1.0,3,5
552.3624035609682,5,Ternary,67,23,0.4413916148041608,558.5237663574226,2,560.5440584271346,2,1.0,2,5
567.0728573425076,5,Quaternary,78,26,0.7811789271654561,573.0505224273002,2,575.0709131196709,2,1.0,2,5
581.2822710033215,5,Null,136,46,0.4333738495261059,587.5939046637868,2,589.6142792245664,2,1.0,4,5
595.6253880218501,5,Binary,12,4,0.6543589908687863,601.4194646498217,2,603.4397706513628,2,1.0,4,5
616.8144128234344,5,Null,114,38,0.6365258882651688,622.8422046145133,2,624.862573675884,2,1.0,2,5
631.2244326652872,5,Ternary,52,18,0.8581918558993493,637.0350962307784,2,639.0554854566362,2,1.0,2,5
645.4673065368115,5,Quaternary,95,32,0.4466853416670346,651.5451858050801,2,653.5654980392719,2,1.0,3,5
660.027384232395,5,Null,112,38,0.7565481938581797,666.2889018187561,2,668.3092862784688,2,1.0,4,5
674.5040916875369,5,Binary,22,8,0.4561703480940196,680.3148395772296,2,682.3351298138077,2,1.0,1,5
688.6301673710768,5,Quaternary,87,29,0.946462799103756,694.5911589943789,2,696.6114484977079,2,1.0,1,5
703.1903139925344,5,Ternary,40,14,0.4926445991441142,709.2515326312641,2,711.271895826605,2,1.0,3,5
717.7003489394192,5,Binary,30,10,0.486502864092472,723.8282856214719,2,725.848758438282,2,1.0,4,5
4.189806947433681,5,Quaternary,96,32,0.468158683484944,10.501433275356248,2,12.521821401336638,2,1.0,4,5
18.88364152827125,5,Binary,21,7,0.5969408073433442,24.861322011398443,2,26.881579984801647,2,1.0,1,5
33.05968480199226,5,Null,123,41,0.5131174159541843,39.18764091527555,2,41.20801730918902,2,1.0,1,5
47.60314329688117,5,Ternary,43,15,0.6468167407801957,53.59752767153259,2,55.61789086688077,2,1.0,2,5
62.0298186354994,5,Binary,23,8,0.4663893417164217,68.10758791567787,2,70.1279866738405,2,1.0,2,5
76.43968229425809,5,Null,126,42,0.6419750649656635,82.18353872607258,2,84.20398954526172,2,1.0,1,5
90.94969231051071,5,Quaternary,83,28,0.841555057115329,97.19455586661206,2,99.21492932751426,2,1.0,2,5
105.42637190200185,5,Ternary,64,22,0.636670705920551,111.35401990197715,2,113.3743427683512,2,1.0,1,5
126.38171160388448,5,Null,142,48,0.4949514160689432,132.67659114492562,2,134.6969565400359,2,1.0,2,5
141.1923535383903,5,Quaternary,97,33,0.6763104142664815,147.2368470212241,2,149.25723661371012,2,1.0,2,5
155.73578600276232,5,Binary,4,2,0.5064268403220922,161.88040567861026,2,163.90079967062047,2,1.0,3,5
170.66335371143214,5,Ternary,59,20,0.4083970203500939,176.97492871158465,2,178.99527174244577,2,1.0,4,5
185.32361186081835,5,Quaternary,92,31,0.6824884453890263,191.5184704307976,2,193.53883765904172,2,1.0,3,5
199.65010711226927,5,Null,119,40,0.4829759126077988,205.9616370172953,2,207.98203064267727,2,1.0,2,5
214.26036174203185,5,Ternary,51,17,0.5206640655742376,220.10440156065303,2,222.12475449044723,2,1.0,1,5
228.53658033676768,5,Binary,7,3,0.7015600139056914,234.84830015456828,2,236.86859149102384,2,1.0,1,5
250.1764540264412,5,Ternary,61,21,0.5967582271114225,255.9037642163239,2,257.92415307556075,2,1.0,3,5
264.40276112492575,5,Quaternary,86,29,0.5170645219550352,270.39714733271103,2,272.4174445352037,2,1.0,4,5
278.91283163462504,5,Ternary,38,13,0.341304650886741,284.67335859490413,2,286.693743787866,2,1.0,4,5
292.70482692126825,5,Null,125,42,0.6119747130142059,298.5823214511911,2,300.60277373689314,2,1.0,4,5
306.7808583895967,5,Quaternary,90,30,0.5468562631649547,312.62495246900653,2,314.64538275708765,2,1.0,2,5
321.14054401429894,5,Binary,36,12,0.7853372102908907,327.2852201506976,2,329.30560681016505,2,1.0,2,5
335.9177946639611,5,Null,131,44,0.7830373592951219,342.02905128524435,2,344.04948853924,2,1.0,3,5
350.1106668490029,5,Binary,1,1,0.4316979976356379,355.9548668836069,2,357.9751985490366,2,1.0,1,5
371.3665277477921,5,Binary,34,12,0.6014213555827155,377.461006785532,2,379.4813978445236,2,1.0,4,5
386.1771135883682,5,Quaternary,103,35,0.5283720310544595,392.104657099655,2,394.1250448590072,2,1.0,3,5
400.7373247361757,5,Ternary,53,18,0.366433996881824,406.7651286259352,2,408.7853895323569,2,1.0,3,5
415.497862328637,5,Null,128,43,0.401292522867152,421.7259156713917,2,423.7463899547147,2,1.0,4,5
430.2917893728009,5,Ternary,65,22,0.5309948804206215,436.08579634164926,2,438.1060843784581,2,1.0,2,5
444.4846362605749,5,Binary,5,2,0.4438395831020898,450.49567943163856,2,452.5159605025401,2,1.0,4,5
458.8777014380539,5,Null,138,46,0.6464900761493482,464.6884687589773,2,466.7088858484858,2,1.0,2,5
472.7867427525125,5,Quaternary,101,34,0.4528303763654548,478.9648145732717,2,480.985096744058,2,1.0,2,5
494.7103948851072,5,Ternary,49,17,0.7667569219265715,500.7716600854619,2,502.7920526109665,2,1.0,3,5
508.88660790711583,5,Quaternary,105,35,0.7662722410677816,514.7139148706774,2,516.7343066629255,2,1.0,1,5
523.0293394540422,5,Binary,18,6,0.3864675945806084,529.2741923779686,2,531.2944686827177,2,1.0,2,5
537.6728882125026,5,Null,130,44,0.5399636760703288,543.6171737445184,2,545.6374903782416,2,1.0,2,5
551.7489053823738,5,Quaternary,84,28,1.1926605107582873,557.6931582845937,2,559.7302382034104,2,1.0,3,5
565.975136589077,5,Ternary,69,23,0.452156515988463,571.9361333451598,2,573.9564235817379,2,1.0,4,5
579.8507180594534,5,Binary,10,4,0.4517748573125573,585.8450815363685,2,587.8653791054821,2,1.0,2,5
593.9767259170039,5,Null,135,45,0.586917592525424,600.054532959759,2,602.0749522490369,2,1.0,3,5
614.9320164908786,5,Ternary,45,15,0.3069601359165972,620.9263070090237,2,622.9467530620677,2,1.0,4,5
629.0413453875371,5,Null,124,42,0.8677120585125522,634.7851677230356,2,636.8055576821498,2,1.0,3,5
643.4511382872952,5,Binary,17,6,0.5861898379807826,649.6292856332075,2,651.649550205897,2,1.0,1,5
658.0113912305751,5,Quaternary,100,34,0.6723438770350185,664.0557736254414,2,666.0761628512992,2,1.0,1,5
672.7218244809992,5,Binary,25,9,0.4815515668233274,678.6660403538917,2,680.6864735749914,2,1.0,3,5
687.2319037897469,5,Null,129,43,0.6175676074853982,693.1427034471708,2,695.1630886401326,2,1.0,1,5
701.3912285068582,5,Ternary,42,14,0.3413145498197991,707.6694796815282,2,709.6899620306431,2,1.0,1,5
715.968091485156,5,Quaternary,73,25,0.4879668056019,721.7455016175518,2,723.7659084415063,2,1.0,4,5
4.333865350599808,5,Binary,25,9,1.004849211236433,10.461851527295948,2,12.599167627206045,2,1.0,2,6
19.027730728110328,5,Quaternary,87,29,1.7330983327992726,25.23918430140111,2,27.259441541551496,2,0.0,2,6
33.85509415222987,5,Ternary,68,23,,39.86615565463581,2,41.88636963280442,2,0.0,999,6
48.231453971671726,5,Null,133,45,0.6314568705129204,54.108948501598206,2,56.12933516106932,2,1.0,4,6
62.47445982890349,5,Ternary,64,22,0.926359875684284,68.7527033044098,2,70.77298437531499,2,1.0,4,6
77.00114513977314,5,Binary,9,3,1.042602257173712,83.24608972044007,2,85.26636529194002,2,1.0,2,6
91.62817991947668,5,Quaternary,90,30,,97.87301964482684,2,99.8934162032274,2,0.0,999,6
106.78936050232367,5,Null,130,44,0.606399016778596,112.96740519268496,2,114.98779331866535,2,1.0,1,6
127.99520541618404,5,Ternary,70,24,0.8902856146560225,133.889391372315,2,135.90967280984478,2,1.0,4,6
142.13792083152657,5,Quaternary,97,33,0.9318798113927188,148.23238887045227,2,150.25272603528356,2,1.0,1,6
156.08017341697996,5,Ternary,58,20,1.2829207386894268,162.39191816541643,2,164.41221756766754,2,1.0,2,6
171.22485945230437,5,Binary,1,1,0.5517089045606554,177.51975402505195,2,179.54008385734414,2,1.0,4,6
185.7682284902185,5,Null,125,42,0.9526341977143602,191.6123724309,2,193.63272902695823,2,1.0,3,6
200.3117966065765,5,Binary,27,9,0.5714184040116379,206.13919009410893,2,208.1594847302076,2,1.0,4,6
214.27075528331625,5,Null,137,46,0.590974653390731,220.432007358424,2,222.4691397048955,2,1.0,4,6
229.01459448365856,5,Quaternary,96,32,1.0336814896618307,235.22613458091652,2,237.24652050713485,2,1.0,3,6
250.73805032417292,5,Null,144,48,0.8717738855229982,256.6489035091363,2,258.6691977786104,2,1.0,3,6
265.0143935720771,5,Binary,20,7,0.8367437781162153,271.0754626270027,2,273.0958269222283,2,1.0,3,6
279.5077315933486,5,Quaternary,84,28,1.5423705489265558,285.36843607440824,2,287.388925389434,2,0.0,3,6
293.65045470785844,5,Binary,24,8,1.7817566980520496,299.9286802186434,2,301.94908667596974,2,1.0,2,6
308.2440047128439,5,Null,131,44,0.9968296128245128,314.52215176545724,2,316.5425409913187,2,1.0,2,6
323.00444918205903,5,Ternary,71,24,0.8027262944087852,329.1158396221872,2,331.13610089523354,2,1.0,1,6
337.18066733683736,5,Quaternary,98,33,0.9718340856743451,343.3253218422433,2,345.34570813508617,2,1.0,2,6
351.3734859943397,5,Ternary,69,23,1.4206232634314802,357.3511540121472,2,359.37147247900066,2,0.0,4,6
372.6126246702588,5,Quaternary,85,29,1.2667462565150345,378.506795594687,2,380.5272123175673,2,1.0,2,6
386.5549821110253,5,Ternary,40,14,,392.7831333431859,2,394.8034642753555,2,0.0,999,6
401.46579166737865,5,Binary,33,11,0.9040924198379798,407.5936546574121,2,409.6141377397762,2,1.0,2,6
415.6418257754194,5,Quaternary,88,30,1.5125425116384577,421.552791148235,2,423.5732042048476,2,1.0,3,6
429.9515170461782,5,Null,128,43,0.8614863326583873,436.0293944813129,2,438.0497807741558,2,1.0,3,6
444.8122801875543,5,Binary,17,6,1.8618232628468832,451.0237737231873,2,453.04408082460577,2,0.0,1,6
459.3391033501648,5,Null,114,38,1.0756030842821929,465.3834670470569,2,467.4038672717252,2,1.0,1,6
473.7656884985481,5,Ternary,56,19,1.1621424482873408,480.010550954772,2,482.0308199269857,2,1.0,3,6
495.8397313821697,5,Null,116,39,0.6466586913302308,502.1179048319245,2,504.1383252210799,2,0.0,3,6
510.1493823239616,5,Binary,34,12,0.9078356812351558,516.4443333572635,2,518.4647075514185,2,1.0,3,6
525.1436988726236,5,Quaternary,101,34,1.758769186832069,530.9210023165724,2,532.9414054742556,2,1.0,1,6
539.4367012835646,5,Null,136,46,1.0327784874280042,545.1805280185872,2,547.2008274208383,2,1.0,3,6
553.5794276977176,5,Ternary,42,14,1.1854628567998589,559.3734181683467,2,561.3936977727426,2,1.0,4,6
567.7388503042275,5,Binary,3,1,0.8563322906702524,573.850116457812,2,575.8705023840303,2,1.0,2,6
582.4158948362092,5,Quaternary,103,35,1.3783801369536377,588.1596753762351,2,590.180202820462,2,0.0,1,6
596.6254085861874,5,Ternary,57,19,1.7513699212613574,602.5363024667422,2,604.5567015915294,2,1.0,4,6
618.0147448007192,5,Quaternary,75,25,1.4458926609331684,624.2095802731965,2,626.2300035953667,2,1.0,1,6
632.975727258352,5,Binary,13,5,0.6168530182912946,638.8532228881559,2,640.8735406217565,2,1.0,1,6
647.6193797722372,5,Ternary,55,19,0.8265042533821543,653.8641612039028,2,655.8846123897201,2,1.0,2,6
661.812100173709,5,Binary,5,2,1.3279879927431466,667.823278263495,2,669.8436583236798,2,1.0,3,6
675.988318328491,5,Null,123,41,0.8615798225328035,682.1663146240935,2,684.1866686537614,2,1.0,4,6
690.5818870314542,5,Quaternary,73,25,0.9381216356086952,696.4092889514031,2,698.4295722220704,2,1.0,3,6
704.5576460226112,5,Ternary,67,23,0.9048414387434603,710.8692822494631,2,712.8896538772278,2,1.0,1,6
719.3848620626886,5,Null,139,47,1.1068507012096234,725.2957530102285,2,727.3161345369226,2,1.0,1,6
4.810185281032318,5,Quaternary,94,32,,10.570815996743477,2,12.591104766815988,2,0.0,999,6
18.936231267784024,5,Ternary,45,15,1.0270151114091275,25.19769935950535,2,27.218187941274664,2,1.0,3,6
33.57988451492565,5,Null,142,48,1.0721769552183105,39.35720042419052,2,41.37759258306687,2,1.0,1,6
47.77270647207115,5,Binary,14,5,1.657964367303066,53.88397225902736,2,55.90432848846103,2,1.0,2,6
62.19929418684114,5,Quaternary,99,33,1.4184872946862015,68.34396519045913,2,70.36425322727519,2,1.0,3,6
76.65918409609367,5,Ternary,72,24,1.1863082985983056,82.70374760468258,2,84.72414562958875,2,1.0,2,6
91.4198232442286,5,Null,117,39,1.111714008009585,97.31397620393182,2,99.33430566959578,2,1.0,2,6
105.47898730539964,5,Binary,36,12,0.651352616467193,111.50683849004416,2,113.52713422602392,2,1.0,1,6
127.25253172298837,5,Ternary,51,17,0.6200151759330765,133.5140606747882,2,135.53436374331068,2,1.0,4,6
141.7626080987211,5,Quaternary,100,34,1.1528543205495223,148.04083874228309,2,150.06120927016673,2,1.0,4,6
156.23920263275068,5,Binary,22,8,0.5111955241409305,162.15011264489658,2,164.1706012266659,2,1.0,4,6
170.7493556335212,5,Null,134,45,0.6729583106243808,176.62685272983435,2,178.6471480991895,2,1.0,1,6
185.09245065443247,5,Quaternary,82,28,1.3488461345041287,190.93655646590923,2,192.956861000941,2,1.0,4,6
199.2685844850093,5,Ternary,39,13,0.4814587769724312,205.4465221202954,2,207.467032699682,2,1.0,4,6
213.6950765101392,5,Binary,30,10,1.1263046616586507,219.5392805776464,2,221.55966723711757,2,1.0,3,6
228.13846270619612,5,Null,109,37,1.4769961934543971,234.38319867611423,2,236.40368432486864,2,1.0,2,6
249.5945686584564,5,Binary,6,2,0.6782960327254841,255.77272040389653,2,257.79301100709927,2,1.0,4,6
264.104771520495,5,Ternary,49,17,0.9048894668776484,270.1157201017959,2,272.13608109737834,2,1.0,2,6
277.99701068739887,5,Null,120,40,0.7569683151377831,283.9411961302576,2,285.96162055230525,2,1.0,2,6
292.22323382830655,5,Quaternary,106,36,,298.4513703953889,2,300.4883582908333,2,0.0,999,6
306.71659934660056,5,Null,121,41,0.6315426612236479,312.6607789234258,2,314.6811824477372,2,1.0,2,6
320.9761529122697,5,Binary,10,4,0.6864949117298238,326.92040618111423,2,328.9408954961364,2,1.0,1,6
335.1356690086577,5,Ternary,63,21,0.8671470531226078,341.11332639428656,2,343.13371781990645,2,1.0,4,6
350.01305758339004,5,Quaternary,93,31,1.686483912919357,355.9906548421932,2,358.0111382911855,2,0.0,4,6
371.3022844697589,5,Ternary,53,18,0.8469587388462969,377.279880628681,2,379.3004172385845,2,1.0,2,6
385.5953121779603,5,Quaternary,108,36,1.374072270016768,391.8234557109536,2,393.8437433811414,2,0.0,2,6
400.0886714635926,5,Null,132,44,0.7699425104692637,405.8491874250649,2,407.8696496096927,2,1.0,3,6
414.4651695014072,5,Quaternary,91,31,,420.743307388344,2,422.780386207276,2,0.0,999,6
429.1255171077719,5,Binary,16,6,,435.2701712465496,2,437.2905670716973,2,0.0,999,6
443.5354027641515,5,Ternary,48,16,1.6401078005728775,449.5798775490148,2,451.6002502766605,2,0.0,2,6
458.2791022796155,5,Null,138,46,0.8661608265647374,464.12335254212303,2,466.1436295801286,2,1.0,1,6
472.0546195169518,5,Binary,28,10,0.8292319580614276,477.78176619120495,2,479.8021330528172,2,1.0,1,6
493.2436637497631,5,Quaternary,79,27,1.8895699588028947,499.0043043644037,2,501.0246349299487,2,1.0,3,6
507.6033636729153,5,Binary,8,3,0.6321241316036321,513.6813261655116,2,515.7016175019671,2,1.0,1,6
521.9966477266971,5,Ternary,65,22,0.9521495168592082,527.9909338453181,2,530.0114117949051,2,1.0,1,6
536.1059857890286,5,Null,122,41,1.043228089416516,541.9833875623299,2,544.0037738551728,2,1.0,3,6
549.9147623254903,5,Ternary,62,21,1.121375728631392,555.8756608255462,2,557.896038685969,2,1.0,3,6
564.3914367842008,5,Quaternary,83,28,0.938973676693422,570.5527926147442,2,572.5730538877906,2,1.0,1,6
578.9349044447699,5,Null,127,43,1.0365155161634902,584.9458852892421,2,586.9662719487133,2,1.0,2,6
593.3948816112425,5,Binary,31,11,0.6442756160031422,599.4226554375964,2,601.4429493404423,2,1.0,4,6
614.8678120753029,5,Null,135,45,0.8708848151145503,620.9288539998306,2,622.9493623794551,2,1.0,2,6
629.277673167675,5,Ternary,59,20,1.2917634146579076,635.572708525182,2,637.5929401014437,2,0.0,4,6
643.887930730456,5,Quaternary,89,30,1.9182354219556144,650.1327711890626,2,652.1531578485337,2,1.0,4,6
658.7152560253708,5,Null,115,39,0.732545092694636,664.5258792618952,2,666.5462483232732,2,1.0,4,6
672.674325423457,5,Binary,29,10,0.8117849136651785,678.9023553020888,2,680.9227657923147,2,1.0,2,6
687.5183304125167,5,Quaternary,107,36,1.7036398555028427,693.3790902542532,2,695.3995190758251,2,1.0,3,6
701.7612350807067,5,Ternary,50,17,0.8175141933752457,708.0227874966295,2,710.0431697565764,2,1.0,3,6
716.6386526189672,5,Binary,18,6,0.5925518826261396,722.8333399741496,2,724.8537988591343,2,1.0,1,6
4.361732666831813,5,Quaternary,74,25,0.7605051655518764,10.439649331055987,2,12.460094650839892,2,1.0,4,6
18.671533559056115,5,Binary,26,9,1.2091304610548832,24.899681858198164,2,26.920107013502275,2,1.0,3,6
33.331893264112296,5,Null,141,47,0.6603822721881443,39.17589422027595,2,41.19628637914866,2,1.0,3,6
47.290937731562735,5,Ternary,44,15,1.337141568383231,53.36881296693901,2,55.38937194108803,2,1.0,2,6
62.251754107179295,5,Binary,21,7,0.5418818351718073,68.44660571124405,2,70.4670268336522,2,1.0,4,6
76.91222929973083,5,Null,119,40,1.1477079777287145,82.75635160941965,2,84.77660371679303,2,0.0,2,6
91.50567701578984,5,Quaternary,80,27,0.7722852568294911,97.65042171143068,2,99.67071194800884,2,1.0,4,6
106.24959027478326,5,Ternary,47,16,1.2240917745766635,112.17719867904452,2,114.19745958546628,2,0.0,4,6
127.82269789299608,5,Null,129,43,0.5231842261637212,133.59991627948693,2,135.62040742764657,2,1.0,4,6
141.83187346625346,5,Quaternary,86,29,0.8121174443294876,147.57567343750998,2,149.5961961155881,2,1.0,3,6
155.90770732264355,5,Binary,12,4,1.1707999776335782,161.88548606179756,2,163.9058360585732,2,1.0,3,6
170.70172345716128,5,Ternary,52,18,,176.92978523233978,2,178.9502078212572,2,0.0,999,6
184.99466720778585,5,Quaternary,81,27,1.1426195619678765,191.0058438310625,2,193.02620372676392,2,1.0,1,6
199.3211272630433,5,Null,124,42,0.7764978007471655,205.4824075684301,2,207.50278176258507,2,1.0,2,6
213.9814943006386,5,Ternary,38,13,1.4240402268223988,219.8255909464424,2,221.84596770698408,2,1.0,3,6
228.5583041180289,5,Binary,35,12,0.7225112456944771,234.3857635984168,2,236.40605420161955,2,1.0,4,6
249.79746332505965,5,Ternary,37,13,1.552496419295494,255.8085534243728,2,257.82896061495194,2,0.0,3,6
263.9401226464761,5,Quaternary,104,35,1.6507348500163062,270.13496141860014,2,272.1554140709268,2,0.0,1,6
278.567181623559,5,Ternary,41,14,0.8632509082781326,284.4279744617197,2,286.44837102012025,2,1.0,3,6
292.74324726151826,5,Null,112,38,0.966393708018586,298.8544404563363,2,300.8749642342955,2,1.0,3,6
307.01962533898404,5,Quaternary,105,35,,313.0473852335126,2,315.06779425722925,2,0.0,999,6
321.9304282960511,5,Binary,15,5,,327.9749027142898,2,329.9952816745936,2,0.0,999,6
336.29022207571325,5,Null,110,37,0.8871183242335974,342.06743532942346,2,344.0879074129807,2,1.0,3,6
350.46626901569834,5,Binary,32,11,0.7668657769063429,356.6944063160336,2,358.71477794379825,2,1.0,1,6
372.02265807730873,5,Binary,23,8,0.968101456459408,378.0839020132989,2,380.1042072815799,2,1.0,1,6
386.98366069942495,5,Quaternary,102,34,0.7787760207611427,392.9278527415663,2,394.9482727640898,2,1.0,2,6
401.2933725012917,5,Ternary,43,15,0.7148535081032605,407.4712962047524,2,409.4917624222762,2,1.0,1,6
415.9369824864516,5,Null,140,47,0.6924100713149528,421.981368180961,2,424.0017673057482,2,1.0,2,6
430.6307415421397,5,Ternary,46,16,0.887727658264339,436.541661819836,2,438.5620213489092,2,1.0,1,6
444.43951807859776,5,Binary,19,7,1.097949364924716,450.7010301655573,2,452.7214039930841,2,1.0,2,6
459.5173071566351,5,Null,143,48,1.122489541376126,465.7620519256016,2,467.78254050737087,2,1.0,2,6
473.8269111701738,5,Quaternary,76,26,1.3989130805894092,479.7212027148744,2,481.74159744014105,2,1.0,3,6
495.2665185420156,5,Ternary,60,20,1.9070521993926377,501.09391716232494,2,503.1143364515956,2,0.0,1,6
509.659672076592,5,Quaternary,92,31,0.6677203110557457,515.7208430538158,2,517.741238145707,2,1.0,2,6
524.4870333009494,5,Binary,2,1,1.0662922256706224,530.3979279147607,2,532.4183101747076,2,1.0,1,6
538.9136202824666,5,Null,113,38,0.6576127720327349,544.841119065266,2,546.8614950925548,2,1.0,4,6
552.9728639016903,5,Quaternary,77,26,1.253632742937043,559.2677100796791,2,561.2880809741873,2,0.0,2,6
567.4996320702558,5,Ternary,66,22,1.0524164946182282,573.5274425593088,2,575.5477489274708,2,0.0,3,6
581.909530925208,5,Binary,7,3,0.6428157073969487,588.0875646167588,2,590.107896648813,2,1.0,4,6
596.503106594082,5,Null,126,42,0.7063239315721148,602.5808370118029,2,604.6013299930964,2,1.0,4,6
618.0093707825472,5,Ternary,61,21,1.937663718515978,623.7533034727676,2,625.773576111249,2,0.0,1,6
631.9350254316705,5,Null,118,40,0.5946497221666505,637.8958938683136,2,639.9163047251641,2,1.0,4,6
646.3282555912847,5,Binary,11,4,0.8095976171425718,652.6065005332966,2,654.6267882034845,2,1.0,2,6
661.0052755592551,5,Quaternary,78,26,0.9984618361086176,666.7491503224155,2,668.7695736445821,2,1.0,1,6
675.1814225884045,5,Binary,4,2,0.8116774919617455,681.0755748148549,2,683.0959757727796,2,1.0,2,6
689.5410565187049,5,Null,111,37,0.6409074140028679,695.4019087504348,2,697.4222745121697,2,1.0,4,6
703.8341912819778,5,Ternary,54,18,1.1371377554642097,710.1124193591531,2,712.1327825544977,2,1.0,3,6
718.3943412030821,5,Quaternary,95,32,1.477190139125014,724.2718441654288,2,726.2922399905729,2,1.0,2,6
4.393293425433512,5,Binary,19,7,0.9465389289325684,10.521314326331776,2,12.658614287945966,2,1.0,1,7
19.404599588247947,5,Quaternary,108,36,1.1227640901488485,25.29878881890181,2,27.31915149749693,2,1.0,3,7
33.84788234240841,5,Ternary,49,17,0.647323409008095,39.59195052988071,2,41.61236490342708,2,1.0,1,7
47.67359482534084,5,Null,128,43,1.3326664966807584,53.81837662314501,2,55.83872866944148,2,1.0,2,7
61.78298427862319,5,Ternary,54,18,0.8874211674628896,68.01128202248219,2,70.03169199645345,2,1.0,2,7
76.64385739537101,5,Binary,32,11,0.8171750591573073,82.4713249402921,2,84.49180017456092,2,1.0,4,7
90.90355230715797,5,Quaternary,98,33,1.0179043612879468,97.04834547052452,2,99.06873894610908,2,0.0,2,7
105.36384160091984,5,Null,110,37,0.8868455569972866,111.42508178849675,2,113.44549762856332,2,1.0,2,7
126.77016906314384,5,Ternary,66,22,0.9047499755979516,132.56425706701702,2,134.58460838004976,2,1.0,1,7
141.01322113315837,5,Quaternary,97,33,1.067867716526962,146.9409101597921,2,148.96132599985867,2,0.0,1,7
155.2229226259733,5,Ternary,70,24,0.9090369903715328,161.3175005586818,2,163.33800732320378,2,1.0,3,7
169.83335899370286,5,Binary,8,3,1.0315734600662836,175.7776410002989,2,177.79809203693003,2,1.0,4,7
183.74244113697927,5,Null,115,39,0.8417851563935983,189.5531232207213,2,191.57361971958017,2,1.0,3,7
197.98541108168135,5,Binary,5,2,0.8629448904976016,204.04670956357583,2,206.06718589773664,2,1.0,2,7
212.44553832459496,5,Null,138,46,0.8119835660254466,218.64045799393352,2,220.66092002949156,2,1.0,4,7
227.25641985552647,5,Quaternary,84,28,1.4297679496667115,233.2174671586108,2,235.2378437691732,2,0.0,4,7
248.612671773466,5,Null,120,40,0.6925190963956993,254.4567421973916,2,256.4771125752304,2,1.0,1,7
263.13950237057,5,Binary,29,10,0.4985819977955543,269.1173135036079,2,271.13775060826447,2,1.0,1,7
277.80000401692814,5,Quaternary,74,25,1.7328037632760245,284.045057891497,2,286.06536520882946,2,0.0,2,7
292.2602317166966,5,Binary,28,10,0.5675049352867063,298.0709214996823,2,300.09141249907407,2,1.0,4,7
306.38638060035737,5,Null,126,42,0.9277175665265532,312.18045137258014,2,314.2008034188766,2,1.0,3,7
320.161998107571,5,Ternary,38,13,1.2815691521464032,326.37334064015886,2,328.39385913687147,2,1.0,2,7
334.4383930555414,5,Quaternary,80,27,1.1733386190608144,340.3159368780107,2,342.3363215544596,2,0.0,1,7
348.6980733020973,5,Ternary,48,16,1.661616513527406,354.6758144086343,2,356.6962254825048,2,0.0,3,7
370.3382654313391,5,Quaternary,88,30,,376.3828620438872,2,378.4032173898595,2,0.0,999,7
384.6480248884909,5,Ternary,43,15,1.402111149902339,390.4420923610305,2,392.4626654857421,2,1.0,4,7
398.8410578753683,5,Binary,16,6,0.8115582742102561,405.1193948670625,2,407.1397967751618,2,1.0,2,7
413.518293287947,5,Quaternary,95,32,,419.4459694824982,2,421.4662471027259,2,0.0,999,7
427.87823497897625,5,Null,133,45,0.9813637288680184,433.7391102955153,2,435.75950523762,2,1.0,3,7
442.3717010669061,5,Binary,13,5,0.5825785969209392,448.1825642662952,2,450.2029474762094,2,1.0,4,7
456.564635430077,5,Null,113,38,0.9850102395139402,462.625874151141,2,464.6463292207118,2,1.0,3,7
470.84119646183535,5,Ternary,59,20,0.9929540306038688,476.71865925888414,2,478.73915869079065,2,1.0,2,7
491.8634912851194,5,Null,109,37,0.7514843394310446,497.624153185825,2,499.64448286763945,2,1.0,1,7
506.2234865042556,5,Binary,33,11,0.6567733197152847,512.1175917764413,2,514.1381088066264,2,1.0,1,7
520.2828198446732,5,Quaternary,103,35,1.5925967854855116,526.4275360155516,2,528.4479569884497,2,0.0,3,7
534.8932364143329,5,Null,129,43,0.7547781511821086,540.7540985321612,2,542.7744355465911,2,1.0,3,7
549.1195642505263,5,Ternary,65,22,0.716490522652748,554.9970677436067,2,557.0175704751891,2,1.0,4,7
563.7300072176149,5,Binary,35,12,0.8560822938525234,569.6242719742295,2,571.644592856901,2,1.0,3,7
578.3070435129703,5,Quaternary,77,26,1.184201891774137,584.3348619969547,2,586.3551443833858,2,0.0,1,7
592.8339903320593,5,Ternary,67,23,0.6322655124895391,599.1456427044031,2,601.1659672533788,2,1.0,4,7
614.3905715578512,5,Quaternary,101,34,1.1513396668888165,620.1345682523024,2,622.1549650275629,2,0.0,2,7
628.833970900625,5,Binary,25,9,0.8195838239844306,635.1290533907377,2,637.1494160693255,2,1.0,1,7
643.1104248761694,5,Ternary,55,19,0.711950532575429,649.2884824584835,2,651.3088909659273,2,1.0,1,7
657.9378495252749,5,Binary,14,5,0.4472584420145722,664.1828487718522,2,666.2032594790871,2,1.0,1,7
672.782053402836,5,Null,116,39,0.9732487211658736,678.6596771508412,2,680.6800882247044,2,1.0,4,7
687.1753669356622,5,Quaternary,87,29,1.1711655978797353,693.18645385321,2,695.2070640076345,2,0.0,1,7
701.1514175072589,5,Ternary,40,14,0.8690987896698061,707.0122301299198,2,709.0325378138732,2,1.0,1,7
715.3777277451663,5,Null,130,44,0.6314985207063728,721.2885906145893,2,723.3090097543318,2,1.0,4,7
4.628685843286803,5,Quaternary,79,27,1.6705850379003095,10.60647277868702,2,12.62687395352259,2,0.0,4,7
19.07221643991943,5,Ternary,39,13,,25.23363558002893,2,27.2540495869398,2,0.0,999,7
33.39873349430127,5,Null,132,44,1.2983260161199723,39.326276968473394,2,41.34683029511507,2,1.0,2,7
48.14276575195254,5,Binary,30,10,0.89690810789034,54.23738878025324,2,56.25770709651261,2,1.0,2,7
62.83665977143392,5,Quaternary,94,32,0.8412447424925631,68.84779765066924,2,70.86821239084384,2,1.0,4,7
77.01293552770949,5,Ternary,53,18,0.9033384467402356,82.94049146732868,2,84.96099859848619,2,1.0,1,7
91.37278592764778,5,Null,144,48,0.7982939359135344,97.20025127278495,2,99.22079543365544,2,1.0,2,7
105.3486916800466,5,Binary,6,2,0.832991881572525,111.39322963166342,2,113.41375692751171,2,1.0,3,7
127.12249949727992,5,Ternary,62,21,0.8522810649737949,133.26710274584912,2,135.28760877710738,2,1.0,2,7
141.6493960879452,5,Quaternary,107,36,1.6991199186086303,147.4267774562759,2,149.44709283948032,2,0.0,4,7
155.97595823792653,5,Binary,22,8,0.7845966065651737,161.87023289357603,2,163.89061573686195,2,1.0,3,7
170.269095018004,5,Null,135,45,0.5563259933842346,176.28025012889702,2,178.30065533666493,2,1.0,1,7
184.56211704262387,5,Quaternary,83,28,0.5324476913738181,190.8238643540244,2,192.84428569355805,2,0.0,1,7
198.88872868777253,5,Ternary,37,13,0.562007305365114,205.1170319310986,2,207.13749176686545,2,1.0,1,7
213.24882216397964,5,Binary,15,5,0.8125107812084025,219.46022189098585,2,221.4805988681765,2,1.0,2,7
227.87587937562785,5,Null,137,46,0.7915772583583021,234.00392850709613,2,236.02430915059813,2,1.0,3,7
249.53270774728296,5,Binary,27,9,0.6824374806965352,255.6773117291159,2,257.6978184936379,2,1.0,3,7
264.477044381878,5,Ternary,56,19,0.7180505370124592,270.75535314300214,2,272.7756677929501,2,1.0,2,7
278.7534162321099,5,Null,142,48,0.852379322044726,285.0317180272468,2,287.0521298343738,2,1.0,4,7
293.7813531378706,5,Quaternary,86,29,1.5559388311885414,299.70901356729155,2,301.7294077761326,2,0.0,4,7
308.05771655558783,5,Null,134,45,,314.2359926498975,2,316.2562526718466,2,0.0,999,7
322.8351998473008,5,Binary,36,12,0.7224108779701055,329.0300230927241,2,331.05034177561174,2,1.0,4,7
337.2452189157775,5,Ternary,46,16,1.4372215552866692,343.00592627871083,2,345.02620756524993,2,0.0,2,7
351.53840152471093,5,Quaternary,89,30,1.7430818931243266,357.6497348548655,2,359.67013859611325,2,0.0,2,7
373.0282376003816,5,Ternary,47,16,0.6530424839656916,378.9558884974031,2,380.9762064470269,2,0.0,2,7
387.0041382199561,5,Quaternary,96,32,0.8384601810175809,392.96517085780215,2,394.9855907308083,2,1.0,2,7
401.06339310136536,5,Null,140,47,0.9908048404322471,407.1915492890548,2,409.2118932694648,2,1.0,1,7
415.5069592611908,5,Quaternary,93,31,,421.65168313132017,2,423.67200144757226,2,0.0,999,7
430.1173662984511,5,Binary,34,12,0.7535415052479948,436.3622764537213,2,438.3994113947847,2,1.0,2,7
444.5607172459568,5,Ternary,41,14,1.8111960429087048,450.8224099293584,2,452.8594605453181,2,0.0,3,7
459.4216431575551,5,Null,112,38,1.0069135010271566,465.3994227603398,2,467.41985326563736,2,1.0,2,7
473.7649291747293,5,Binary,4,2,0.4961754327596281,480.0098352970599,2,482.0302533369104,2,1.0,1,7
495.6554114006504,5,Quaternary,106,36,0.5546402246400248,501.6164605368831,2,503.6368730772738,2,1.0,1,7
509.8317736818135,5,Binary,11,4,0.7312265172658954,515.8596174633276,2,517.8799552110213,2,1.0,1,7
524.5255775100959,5,Ternary,52,18,0.9682328442213476,530.3364095458601,2,532.3568558162879,2,1.0,4,7
538.2678110766938,5,Null,117,39,0.7201692968228599,544.3791414738007,2,546.3995452150484,2,1.0,1,7
552.2603153085292,5,Ternary,44,15,0.7128623435564805,558.455213713285,2,560.4755356958485,2,1.0,1,7
566.8374311627849,5,Quaternary,105,35,0.4468272841113503,572.8819614151507,2,574.9023504911602,2,0.0,1,7
581.1973768867538,5,Null,141,47,1.0239794348235591,587.2085191655569,2,589.2289892669942,2,1.0,2,7
595.5572041889463,5,Binary,9,3,0.5266717886261176,601.2845668407754,2,603.3050120113112,2,1.0,1,7
616.7298895291024,5,Null,124,42,0.5923020142654423,622.4738788909381,2,624.4942866651254,2,1.0,1,7
631.0397439436492,5,Ternary,51,17,0.8270451288408367,637.3180479385701,2,639.3385030081408,2,1.0,3,7
645.9173203962637,5,Quaternary,75,25,1.005258529279672,651.9785587506922,2,653.9989665248795,2,0.0,2,7
660.3774502055894,5,Null,127,43,0.6478293596082949,666.4218393050687,2,668.4423995976977,2,1.0,1,7
674.9878693416686,5,Binary,31,11,0.8766392867983086,681.0156867257683,2,683.0360244734547,2,1.0,3,7
689.4647006537052,5,Quaternary,92,31,0.7163629351198324,695.3756485814883,2,697.3960669879743,2,1.0,1,7
703.8580332513375,5,Ternary,72,24,,709.8524106002951,2,711.872859437135,2,0.0,999,7
718.1177079984263,5,Binary,1,1,0.8083557535501313,724.1121121114338,2,726.132548482834,2,1.0,3,7
4.021417166288302,5,Quaternary,91,31,0.6829599296979723,10.015861242063693,2,12.036359207450005,2,1.0,4,7
18.915755249079663,5,Binary,20,7,0.5867468233045656,24.709923911745136,2,26.73027265836572,2,1.0,2,7
33.22564192714344,5,Null,123,41,1.012961810505658,39.37036689716479,2,41.390743874355394,2,0.0,4,7
48.00308452283207,5,Ternary,50,17,1.4132695604639594,54.03077945221594,2,56.05123928799003,2,1.0,2,7
62.81388869465445,5,Binary,10,4,0.5698741039741435,68.99194664359675,2,71.01236761649488,2,1.0,4,7
77.24058983439318,5,Null,125,42,0.9770165866284516,83.36859900310083,2,85.38906323844276,2,1.0,2,7
91.6506224682089,5,Quaternary,90,30,0.5212185210475582,97.81204087506194,2,99.83246111469634,2,1.0,4,7
106.09402511066584,5,Ternary,60,20,0.7069973495017621,112.00501996720412,2,114.0254996010408,2,0.0,1,7
127.7341439137308,5,Null,111,37,0.8265655756622436,134.01245560790267,2,136.03287218123296,2,1.0,3,7
142.22771742450277,5,Quaternary,100,34,0.8119780665583676,148.0718223117292,2,150.09235913998418,2,0.0,1,7
156.45409658901917,5,Binary,26,9,0.5838324745054706,162.59871890239447,2,164.61915454053087,2,1.0,2,7
170.880839891317,5,Ternary,69,23,0.968267674150411,176.77506615169114,2,178.79550692265911,2,0.0,3,7
185.14059896350227,5,Quaternary,102,34,,191.2352348238928,2,193.25555167362472,2,0.0,999,7
199.9680595424361,5,Null,114,38,1.0893145226073102,205.795465493371,2,207.81597079136557,2,1.0,4,7
214.1443642625527,5,Ternary,45,15,0.6324447949882597,219.95504891270684,2,221.9755468780932,2,1.0,2,7
228.6879975524862,5,Binary,23,8,0.5515392607339891,234.6656796314637,2,236.68615669888823,2,1.0,4,7
250.0943440795236,5,Ternary,68,23,0.5917190711770672,255.82167116815253,2,257.8419066258357,2,1.0,1,7
264.2038310566131,5,Quaternary,99,33,0.6864557550507016,270.0145842667407,2,272.03501477203827,2,0.0,3,7
278.3467159062857,5,Ternary,42,14,0.72124242537393,284.4246399983021,2,286.4449616142301,2,1.0,3,7
292.8067569909399,5,Null,139,47,0.9775104384170844,298.81799935997697,2,300.8384020013327,2,1.0,4,7
306.9330349286756,5,Quaternary,73,25,0.5318002212588908,312.76051970523986,2,314.7808530533657,2,0.0,1,7
321.1426128668827,5,Binary,24,8,0.4081440608788398,326.9868750387541,2,329.0072853793536,2,1.0,1,7
334.9348787153285,5,Null,122,41,0.6302750734903384,341.0295244747467,2,343.0498856868144,2,1.0,2,7
349.0277287167337,5,Binary,18,6,0.4565254039189312,355.0388350657231,2,357.05927327027166,2,1.0,4,7
370.0500187738144,5,Binary,17,6,0.5433938226706232,376.3450484690839,2,378.3654346120529,2,1.0,3,7
385.0277529143714,5,Quaternary,104,35,0.3478123845998198,391.3393906214769,2,393.3598662223813,2,1.0,2,7
399.6715101622103,5,Ternary,57,19,1.6434664522384992,405.4655750683378,2,407.4860799997041,2,1.0,3,7
413.4304327660648,5,Null,119,40,0.9442841490745196,419.391476769466,2,421.4285875128917,2,1.0,4,7
427.7068493452607,5,Ternary,61,21,0.6068469941892545,433.4675636741813,2,435.4879329521282,2,1.0,1,7
441.5491353767357,5,Binary,7,3,0.72072914216551,447.6104642889841,2,449.6308610642518,2,1.0,3,7
455.5752083311454,5,Null,121,41,0.4821375033207005,461.5696509404006,2,463.59006824698736,2,1.0,1,7
469.88506274569227,5,Quaternary,76,26,0.5970216534624342,476.0965841941506,2,478.1168999439833,2,0.0,4,7
491.54184345533577,5,Ternary,63,21,0.7220541461283574,497.6865933562513,2,499.7070113961017,2,1.0,3,7
505.9351360902001,5,Quaternary,82,28,0.5030955904512666,511.729158100512,2,513.7496091371431,2,0.0,4,7
520.428638107951,5,Binary,3,1,0.4104021404200466,526.172612071292,2,528.1930238784189,2,1.0,1,7
534.4213498528625,5,Null,131,44,0.5725285114822327,540.7163414185197,2,542.7367092299392,2,1.0,1,7
549.2487785349076,5,Quaternary,85,29,0.6163639983424218,555.4603414126541,2,557.4807561528214,2,0.0,4,7
563.4752027950162,5,Ternary,64,22,1.1412074561230838,569.553123953985,2,571.5735434603557,2,1.0,3,7
577.8184246517922,5,Binary,21,7,0.6580286638127291,583.9630781287924,2,585.9836090909521,2,1.0,3,7
592.1116046943134,5,Null,143,48,0.6894749602797674,598.3564785531271,2,600.37692922313,2,1.0,1,7
613.7851594995809,5,Ternary,71,24,0.6016085723022115,619.8463380931717,2,621.8667506335623,2,1.0,4,7
628.2952471646859,5,Null,136,46,0.7207346416253131,634.6069457325139,2,636.6274444311566,2,1.0,2,7
643.0560252873838,5,Binary,12,4,0.8713429372364772,648.8500982593905,2,650.8704539719911,2,1.0,2,7
657.466067453599,5,Quaternary,78,26,1.1435656258909148,663.2935657955095,2,665.3139504719511,2,0.0,1,7
671.5254642211585,5,Binary,2,1,0.5262468634464312,677.369625936175,2,679.3900080461972,2,1.0,4,7
685.33438464356,5,Null,118,40,1.129539795278106,691.4290326027694,2,693.4493399200946,2,0.0,4,7
699.5941594808828,5,Ternary,58,20,1.1439370229636552,705.6553850032287,2,707.6757898443684,2,0.0,3,7
714.1042867421202,5,Quaternary,81,27,0.6886174106693943,720.1154158222198,2,722.1359302859928,2,1.0,4,7
4.559274255143464,5,Binary,23,8,,10.570508191669433,2,12.657626652669933,2,1.0,3,8
19.019531285381163,5,Quaternary,105,35,,24.94702709753983,2,26.967560992747167,2,0.0,4,8
33.34609196884048,5,Ternary,59,20,,39.37377369951355,2,41.39429879557974,2,1.0,1,8
47.65585435903813,5,Null,133,45,,53.55011544934678,2,55.5704718952129,2,1.0,2,8
62.16611690707214,5,Ternary,47,16,,68.07699554162173,2,70.09738571752678,2,1.0,4,8
76.72644730014872,5,Binary,35,12,,82.77088442826971,2,84.79137689418894,2,1.0,2,8
91.37022691246602,5,Quaternary,76,26,,97.4480615465436,2,99.46855401246285,2,0.0,3,8
105.71348139938527,5,Null,126,42,0.7975136771274265,111.90823865125276,2,113.92860756256778,2,1.0,2,8
127.8043416950586,5,Ternary,55,19,,133.98243190751782,2,136.00284554779864,2,1.0,4,8
142.44821919781862,5,Quaternary,81,27,1.5544583074333786,148.1922015936707,2,150.21260313513267,2,0.0,2,8
156.3907146121819,5,Ternary,51,17,,162.56881105736647,2,164.58923862962183,2,1.0,2,8
170.73393426917028,5,Binary,13,5,,176.56132738802262,2,178.58173919514957,2,1.0,3,8
185.19409304233525,5,Null,128,43,,191.4223299254736,2,193.44270946908543,2,1.0,1,8
199.4538444152768,5,Binary,8,3,,205.76554078332083,2,207.7860182173736,2,1.0,3,8
214.4648719386223,5,Null,116,39,0.9167152724130574,220.39261192694173,2,222.41305269790791,2,1.0,3,8
228.8750886211328,5,Quaternary,79,27,,235.03631381351445,2,237.0567696163453,2,0.0,3,8
250.69880369908424,5,Null,113,38,,256.8434245459357,2,258.8639342435053,2,1.0,2,8
265.4927901462088,5,Binary,19,7,,271.7376944353855,2,273.75820266643314,2,1.0,4,8
280.13667681474,5,Quaternary,93,31,,286.34813520268654,2,288.36851474629657,2,0.0,4,8
294.58011722017545,5,Binary,1,1,0.8765112643322936,300.60796283484706,2,302.6282727185935,2,1.0,2,8
308.87329102997137,5,Null,112,38,0.9217340824088752,314.7174846418693,2,316.73784915361284,2,1.0,1,8
323.58392908134374,5,Ternary,44,15,,329.7618704416691,2,331.7823984707811,2,1.0,4,8
337.9771043943274,5,Quaternary,108,36,,344.0551014458815,2,346.0754344273719,2,0.0,4,8
352.7878715364277,5,Ternary,40,14,,358.7490203962607,2,360.7693379792545,2,0.0,1,8
374.32788031357086,5,Quaternary,98,33,,380.5226929266992,2,382.542998777506,2,0.0,1,8
388.7713441833821,5,Ternary,50,17,,394.949469225774,2,396.9697281478275,2,1.0,1,8
403.13116268643535,5,Binary,24,8,0.6566346649506158,409.3094028509204,2,411.3296724052707,2,1.0,4,8
417.8083570363615,5,Quaternary,104,35,,423.91974536114685,2,425.940154601858,2,1.0,1,8
432.1349947123017,5,Null,144,48,,438.0791865277079,2,440.09975561947977,2,1.0,1,8
446.4615385307407,5,Binary,4,2,,452.4726063834824,2,454.49298849351,2,1.0,4,8
461.0884560560262,5,Null,142,48,,467.0495902506245,2,469.0699789600076,2,1.0,3,8
475.9328458154396,5,Ternary,64,22,0.7164149284035375,482.1442594744185,2,484.1646470839096,2,1.0,2,8
497.6396078452399,5,Null,140,47,,503.7008461996684,2,505.7213602968095,2,1.0,4,8
511.83254807450976,5,Binary,27,9,,517.9774009987013,2,519.9977999737494,2,1.0,2,8
526.0757277320681,5,Quaternary,91,31,,532.1536507241872,2,534.1739701403349,2,0.0,4,8
541.0032902710464,5,Null,118,40,0.8276752990150271,547.1313331697911,2,549.1517717409715,2,1.0,2,8
555.1796463194842,5,Ternary,45,15,,560.9736181013723,2,562.9940662049557,2,1.0,1,8
569.3725300875976,5,Binary,15,5,,575.2668073096665,2,577.2872781443639,2,1.0,1,8
583.4986925366047,5,Quaternary,97,33,,589.72689825612,2,591.747405020642,2,1.0,3,8
598.1257618470718,5,Ternary,57,19,,603.9365685853063,2,605.9569778260175,2,1.0,2,8
619.3818527773929,5,Quaternary,90,30,,625.326350729576,2,627.3466070852137,2,1.0,3,8
633.9088718227667,5,Binary,20,7,0.6418381762468925,640.2038619219002,2,642.2241336760344,2,1.0,1,8
648.736328735391,5,Ternary,65,22,,654.7307691448586,2,656.7510713293559,2,1.0,3,8
663.4134471927246,5,Binary,14,5,,669.1407163536787,2,671.1612223849406,2,1.0,4,8
677.1555359401264,5,Null,114,38,,682.9997192863593,2,685.0201032295408,2,1.0,3,8
691.5488967683323,5,Quaternary,102,34,,697.7438054387476,2,699.7641241216352,2,1.0,4,8
705.8588410074426,5,Ternary,39,13,,711.7364031614579,2,713.7568120355372,2,1.0,2,8
720.2019231778522,5,Null,137,46,,726.4301945242933,2,728.4507067882805,2,1.0,2,8
4.729025081804139,5,Quaternary,89,30,,10.506407550028598,2,12.52680872486053,2,0.0,4,8
18.755024710038924,5,Ternary,38,13,0.64160023281147,24.899766911708863,2,26.920150121628467,2,1.0,1,8
33.181652523611774,5,Null,138,46,,38.9924651279398,2,41.01282707326936,2,1.0,3,8
47.60848601710131,5,Binary,2,1,,53.48609986606789,2,55.50647317695439,2,0.0,4,8
62.03511786361196,5,Quaternary,106,36,,68.31351754918978,2,70.33383586544369,2,1.0,4,8
76.59547025454049,5,Ternary,48,16,,82.55666091029161,2,84.57689196839965,2,1.0,1,8
90.5213334594282,5,Null,139,47,0.9612653228414274,96.5658197160883,2,98.5862839514284,2,1.0,3,8
104.84782704943792,5,Binary,28,10,,110.89232687143884,2,112.91274087835154,2,1.0,3,8
126.35431183297442,5,Ternary,49,17,,132.23196747786096,2,134.2523213573113,2,1.0,4,8
140.63086296569782,5,Quaternary,78,26,,146.85904558746734,2,148.87938883462266,2,1.0,3,8
155.29127662064457,5,Binary,29,10,,161.21892165156896,2,163.2393932195282,2,1.0,4,8
170.01865283781444,5,Null,127,43,,175.99644417278614,2,178.0168152838869,2,1.0,4,8
184.49547718386384,5,Quaternary,94,32,,190.64017648972185,2,192.6606143276404,2,0.0,4,8
198.95564878910957,5,Ternary,43,15,,204.73286480691783,2,206.7533448073882,2,1.0,3,8
213.19857950430745,5,Binary,22,8,,218.94255896711184,2,220.96306463174187,2,1.0,2,8
227.14110938197337,5,Null,123,41,,232.90184130917987,2,234.9221610919576,2,1.0,2,8
248.5809091428564,5,Binary,30,10,,254.74237961128887,2,256.76261066939696,2,1.0,1,8
263.6087609902552,5,Ternary,56,19,,269.686687648682,2,271.70701146439933,2,1.0,1,8
278.4696803024981,5,Null,136,46,,284.2636033224808,2,286.2841350179042,2,1.0,1,8
293.0632069211824,5,Quaternary,83,28,,298.9407602760566,2,300.9613048035608,2,1.0,3,8
307.60685780940184,5,Null,111,37,,313.81844928435385,2,315.8388735569315,2,1.0,2,8
322.00020103932366,5,Binary,33,11,0.6829536286732036,328.1449208765116,2,330.16532095144976,2,1.0,4,8
336.1430426265579,5,Ternary,62,21,,342.0707188211054,2,344.09112806181656,2,1.0,1,8
350.1523711824466,5,Quaternary,95,32,,356.38059083393455,2,358.4010448036115,2,0.0,1,8
371.7423425815723,5,Ternary,71,24,,377.5699355142479,2,379.5903506210525,2,1.0,3,8
386.0188328535714,5,Quaternary,87,29,,391.8129292899557,2,393.8334056241165,2,1.0,2,8
399.9280513835365,5,Null,141,47,,405.738700103866,2,407.75927029552986,2,1.0,1,8
414.1042145841348,5,Quaternary,103,35,,420.01516544496553,2,422.0355669864293,2,0.0,2,8
428.2972373053508,5,Binary,34,12,,434.2749219507386,2,436.2953271585102,2,1.0,1,8
442.8742765337538,5,Ternary,63,21,,448.9354492612565,2,450.9558255051888,2,0.0,4,8
457.5012417210528,5,Null,115,39,,463.4791338795149,2,465.4994430299976,2,1.0,2,8
471.8446278284555,5,Binary,32,11,1.1825417188902063,477.73892044901913,2,479.7592090681737,2,1.0,3,8
493.4512446357676,5,Quaternary,92,31,,499.21194283293335,2,501.2324242999257,2,0.0,2,8
507.6276124163942,5,Binary,6,2,,513.488467934867,2,515.5087888175367,2,1.0,2,8
522.2379237629957,5,Ternary,42,14,,528.0988837712666,2,530.1191987878447,2,1.0,2,8
536.7982446236692,5,Null,131,44,,542.7926806335672,2,544.81317933221,2,1.0,4,8
551.124791008524,5,Ternary,66,22,,557.0190465993692,2,559.0395449313819,2,1.0,4,8
565.6184143810951,5,Quaternary,101,34,,571.8466820612266,2,573.8670223753343,2,1.0,3,8
580.2955148735164,5,Null,119,40,,586.2733109746914,2,588.2937304810657,2,1.0,3,8
594.9561026781284,5,Binary,31,11,0.6468771509407816,600.9338463510867,2,602.954222228389,2,1.0,2,8
616.4792398358368,5,Null,143,48,,622.3402478727512,2,624.3604939627257,2,1.0,4,8
630.4719218836453,5,Ternary,58,20,,636.5832409151972,2,638.6036549221099,2,1.0,4,8
644.9820473117325,5,Quaternary,88,30,,651.1100674793634,2,653.130576077041,2,0.0,4,8
659.8764029928061,5,Null,129,43,,665.6536813378643,2,667.6741954350055,2,1.0,2,8
673.7019475588058,5,Binary,9,3,,679.9469358064525,2,681.9673336816068,2,1.0,4,8
688.5128155243965,5,Quaternary,84,28,,694.3401833457192,2,696.3605797543496,2,0.0,3,8
702.5220084268622,5,Ternary,52,18,,708.3829611025176,2,710.4032805186653,2,1.0,3,8
716.748361927217,5,Binary,26,9,,722.6092225785214,2,724.6297425417561,2,1.0,1,8
4.913528438242793,5,Quaternary,100,34,,10.741103406006005,2,12.811470135868149,2,1.0,2,8
19.256804923013988,5,Binary,18,6,,25.568494691702654,2,27.58900255612025,2,1.0,3,8
34.151189934560534,5,Null,117,39,,40.11202569162924,2,42.14916356573303,2,1.0,4,8
48.76148148309585,5,Ternary,69,23,,54.83942903948264,2,56.85992737149354,2,1.0,1,8
63.50548477690609,5,Binary,7,3,,69.2495555307978,2,71.26987384705353,2,1.0,2,8
78.09928856853003,5,Null,135,45,,83.97680855999351,2,86.01393360201837,2,1.0,4,8
92.52602453820872,5,Quaternary,80,27,,98.27000400101316,2,100.2903303831481,2,1.0,2,8
106.78579350942891,5,Ternary,46,16,,112.84693434004656,2,114.86741287399128,2,1.0,3,8
128.05855221242018,5,Null,132,44,,134.08635529791354,2,136.10680340149702,2,1.0,1,8
142.46848805568516,5,Quaternary,85,29,,148.56319540908953,2,150.5836295807021,2,1.0,4,8
157.06228854762958,5,Binary,3,1,,163.1235342346772,2,165.14398527130834,2,1.0,4,8
171.87294716699398,5,Ternary,37,13,0.4512582797469804,177.6169746584419,2,179.65403444017284,2,1.0,4,8
186.46670586302207,5,Quaternary,96,32,,192.46132335520088,2,194.48151261738892,2,1.0,1,8
200.81005897364597,5,Null,120,40,,206.8880373270258,2,208.90828378362855,2,1.0,4,8
214.81932373576277,5,Ternary,72,24,,220.73030026075503,2,222.75065560672735,2,1.0,4,8
228.77845869222077,5,Binary,36,12,,234.82308720165747,2,236.8435851670365,2,1.0,3,8
250.10130723810653,5,Ternary,67,23,,256.22933290520086,2,258.24982390459627,2,1.0,3,8
264.5781983109737,5,Quaternary,75,25,1.3669500443720608,270.60597903198504,2,272.6265129271924,2,1.0,3,8
279.0549672957641,5,Ternary,68,23,,285.1831088182116,2,287.2034890950854,2,0.0,1,8
293.74882281900136,5,Null,122,41,,299.5596244244043,2,301.5801245895709,2,1.0,1,8
308.4094674513981,5,Quaternary,73,25,,314.5375026508955,2,316.5578059352847,2,1.0,1,8
322.83608829898367,5,Binary,10,4,,328.66362953670614,2,330.68407397398187,2,1.0,3,8
336.6283548806896,5,Null,134,45,,342.389078375385,2,344.4095085140543,2,1.0,3,8
351.0551608768619,5,Binary,16,6,,357.1664872410329,2,359.1868055572886,2,1.0,1,8
372.5449844870855,5,Binary,21,7,,378.6396064154978,2,380.6600314213356,2,1.0,2,8
387.20539777540034,5,Quaternary,74,25,0.6416801215636951,393.5005253611089,2,395.5208308452857,2,1.0,2,8
401.81589207080833,5,Ternary,70,24,,407.7434447107517,2,409.7639566081052,2,1.0,2,8
416.1423482644677,5,Null,109,37,0.5724506806618592,422.3872536535382,2,424.40765042879866,2,1.0,4,8
430.55252755062975,5,Ternary,41,14,,436.2963654939194,2,438.316769601799,2,1.0,1,8
444.47819864094345,5,Binary,5,2,,450.7899775009319,2,452.8102994834953,2,1.0,1,8
459.13868965500296,5,Null,130,44,,465.3335085008548,2,467.3539210412455,2,1.0,3,8
474.2834333231949,5,Quaternary,99,33,,480.4949984007253,2,482.5154091079603,2,1.0,1,8
495.4560086740894,5,Ternary,60,20,,501.4170460781388,2,503.43744945275466,2,1.0,2,8
509.63235592338606,5,Quaternary,86,29,,515.4096401345378,2,517.4300339767506,2,1.0,1,8
523.9420897163764,5,Binary,25,9,,530.0033537349664,2,532.0237028482152,2,1.0,4,8
538.7361978849476,5,Null,121,41,,544.6638458489215,2,546.6843328153773,2,1.0,4,8
553.2297772618149,5,Quaternary,77,26,,559.307654791708,2,561.3280610993716,2,1.0,2,8
567.9904963569425,5,Ternary,53,18,,573.7343874617072,2,575.7549275896381,2,1.0,4,8
581.7994424435055,5,Binary,12,4,,587.9273537217668,2,589.9478648858603,2,1.0,1,8
596.6769873658704,5,Null,125,42,,602.9719961631781,2,604.9924028374735,2,0.0,4,8
618.3670995879147,5,Ternary,61,21,,624.1110937159538,2,626.1314959906776,2,1.0,4,8
632.0926272522302,5,Null,110,37,0.5162428684161569,638.387529726584,2,640.4079345677237,2,1.0,1,8
646.9367105082347,5,Binary,11,4,,653.0814255792175,2,655.1019851385863,2,1.0,4,8
661.263336818618,5,Quaternary,107,36,,667.4413731363384,2,669.4617207830634,2,1.0,1,8
675.4729781839669,5,Binary,17,6,,681.3171842613119,2,683.3375803033123,2,1.0,2,8
689.6157970400855,5,Null,124,42,,695.7772088475795,2,697.7976166217668,2,1.0,4,8
704.2596015833005,5,Ternary,54,18,,710.0036892022144,2,712.0239613229787,2,1.0,1,8
718.2689939329612,5,Quaternary,82,28,,724.497106528237,2,726.5176422565964,2,1.0,2,8
4.43009718365056,5,Binary,19,7,1.5787943189004636,10.725162201754756,2,12.87914775947911,2,1.0,3,9
19.09060764946093,5,Quaternary,91,31,1.5323654384555994,24.968251965894524,2,26.98856251588313,2,0.0,3,9
33.08324095967214,5,Ternary,59,20,1.4127921073902598,39.31145179225882,2,41.331758309321,2,1.0,4,9
48.11096036186064,5,Null,133,45,0.8818071348073317,54.12213450068384,2,56.14257740398034,2,1.0,1,9
62.4207301624283,5,Ternary,50,17,1.8918461881985424,68.54881553434507,2,70.56917154641133,2,0.0,2,9
76.5136003887269,5,Binary,30,10,0.7111516596328329,82.7250848428962,2,84.74539062669874,2,1.0,4,9
91.47460235826156,5,Quaternary,106,36,1.9765669703811,97.5524334358447,2,99.57291006907008,2,0.0,4,9
105.85110389004012,5,Null,134,45,1.203064542559332,111.67853754107044,2,113.69909629933954,2,1.0,2,9
126.9234069255872,5,Ternary,70,24,,132.75082371165308,2,134.77116982471853,2,0.0,999,9
141.14981430686885,5,Quaternary,98,33,0.771164535666685,147.36116970739704,2,149.38157704761625,2,0.0,4,9
155.86036018910454,5,Ternary,69,23,0.5159587611033203,161.9548479854693,2,163.97526999087495,2,1.0,4,9
170.47077217818742,5,Binary,27,9,0.9129174947347564,176.3148640145182,2,178.33516649865442,2,1.0,1,9
184.3296875849924,5,Null,128,43,1.079623635194821,190.60780881328992,2,192.62826968143963,2,0.0,1,9
199.0736235303912,5,Binary,32,11,1.1163789920206,205.0346588632251,2,207.0549613473609,2,1.0,2,9
213.01608027175732,5,Null,123,41,0.7470296716792291,218.9937099963304,2,221.0141129369936,2,1.0,1,9
227.05872736724405,5,Quaternary,90,30,,232.9362602282604,2,234.95656344565575,2,0.0,999,9
248.0808446682045,5,Null,135,45,1.0962018952291146,253.9082900513836,2,255.9287274552348,2,1.0,3,9
262.6411798117106,5,Binary,8,3,1.057353083036105,268.9027854736455,2,270.9231924472351,2,1.0,2,9
276.90094205970763,5,Quaternary,89,30,1.3926454408606332,282.8451754884136,2,284.86552416788663,2,0.0,4,9
291.193928287631,5,Binary,31,11,0.8303774257788064,297.42211198962286,2,299.4425141970264,2,1.0,1,9
305.9379580902228,5,Null,141,47,1.681559513133834,311.9656628272246,2,313.98617905645324,2,0.0,2,9
320.51497305017983,5,Ternary,53,18,1.3970757936904192,326.3757700004076,2,328.3960629521721,2,1.0,3,9
334.32369722295334,5,Quaternary,107,36,1.277775235093486,340.06776698817794,2,342.0880584734241,2,0.0,2,9
348.5834063096495,5,Ternary,44,15,1.4523092854569768,354.62792065000167,2,356.64831845784965,2,1.0,3,9
370.3571114836736,5,Quaternary,105,35,0.8569192134946206,376.25134725880935,2,378.27173150136014,2,0.0,2,9
384.6835057396133,5,Ternary,63,21,1.630973418956728,390.51105451235753,2,392.5313976923858,2,1.0,1,9
398.8598300426138,5,Binary,22,8,0.6868837090783018,404.987827056782,2,407.0081090096569,2,1.0,1,9
413.4200038690688,5,Quaternary,97,33,1.7737001464060995,419.397647525569,2,421.4182202157658,2,0.0,3,9
427.4460085443302,5,Null,121,41,1.2468888858888931,433.29008791525257,2,435.31045785924607,2,1.0,3,9
441.53880654458544,5,Binary,6,2,0.7332924248917152,447.4663044291324,2,449.4867110360924,2,1.0,1,9
455.965446149095,5,Null,127,43,1.1636775180227232,461.90967444498574,2,463.9300850848717,2,1.0,3,9
470.2085062162319,5,Ternary,67,23,0.6514559182564881,476.2195718326757,2,478.2399879720069,2,1.0,2,9
491.4811184672353,5,Null,136,46,0.6918497078436303,497.4421735980709,2,499.4624999131347,2,1.0,4,9
505.623906421838,5,Binary,33,11,0.7515241846990648,511.68518417020414,2,513.7054844545619,2,1.0,3,9
520.1340888274271,5,Quaternary,92,31,1.4791880058310198,525.9281844767065,2,527.9483971417849,2,0.0,2,9
534.4272745018866,5,Null,109,37,1.096284386903335,540.1878033725056,2,542.208200813724,2,1.0,3,9
548.4530606658695,5,Ternary,58,20,0.9920075785757944,554.7147667843319,2,556.7350355385393,2,1.0,3,9
563.1135898297925,5,Binary,29,10,1.0996973424221324,569.0077713437386,2,571.028170984735,2,1.0,3,9
577.4902523119927,5,Quaternary,79,27,0.6284044449184876,583.5347340223057,2,585.5550405393678,2,0.0,2,9
591.9336102290672,5,Ternary,61,21,0.8468680613241304,597.7109560356303,2,599.7312893166577,2,1.0,3,9
613.122704976437,5,Quaternary,104,35,1.6118265515142411,619.1840127884352,2,621.2044681571401,2,0.0,2,9
627.4492040884602,5,Binary,23,8,0.6168941066953266,633.6606944087039,2,635.6810856172178,2,1.0,2,9
641.976071443315,5,Ternary,38,13,0.7218469801186984,648.0873761756243,2,650.1078660075173,2,1.0,4,9
656.0521075020756,5,Binary,14,5,1.4430111906108325,662.2969878854824,2,664.3174722179301,2,1.0,3,9
670.7126975265223,5,Null,126,42,0.7332157992923385,676.6903785792483,2,678.7107433904266,2,1.0,1,9
684.6383336656481,5,Quaternary,80,27,0.3533009453653903,690.5659342065001,2,692.5863375137933,2,0.0,4,9
699.1485761985018,5,Ternary,66,22,1.2817102712506312,705.2933267216822,2,707.3135738447395,2,1.0,3,9
713.408188861597,5,Null,120,40,0.5262617878506717,719.5863719769814,2,721.6066762942655,2,0.0,2,9
4.0550530047758,5,Quaternary,100,34,1.3520181081794362,10.14956279892067,2,12.170076828371291,2,1.0,1,9
18.63191801320136,5,Ternary,48,16,0.636748569384963,24.843513922787224,2,26.86383730481384,2,1.0,4,9
33.4260792891896,5,Null,130,44,0.9332713070234604,39.62073764167326,2,41.64124653830868,2,1.0,2,9
47.8694364730045,5,Binary,12,4,0.7017516417417937,53.69688075629483,2,55.717270131660825,2,1.0,4,9
61.8786803066605,5,Quaternary,75,25,1.520097643351619,67.97319083406455,2,69.99365206884386,2,0.0,3,9
75.97131955627219,5,Ternary,37,13,0.6628115387625257,82.1161206743459,2,84.13650345037786,2,1.0,3,9
90.7654584678512,5,Null,125,42,1.642404565173365,96.6262891480078,2,98.6465996979964,2,0.0,3,9
104.90822442467424,5,Binary,24,8,0.7365843926227171,111.16976739293705,2,113.1901633676366,2,1.0,3,9
126.69854122203196,5,Ternary,45,15,1.326238543530053,132.84319385509298,2,134.8635861634957,2,0.0,2,9
141.07515310933877,5,Quaternary,73,25,0.3967384944021432,147.25327719734742,2,149.27351295488506,2,0.0,2,9
155.6186669173453,5,Binary,20,7,0.5719698743814661,161.6798629072964,2,163.70021671958511,2,1.0,4,9
169.8283713845076,5,Null,143,48,1.731620227005351,175.65585343065322,2,177.67611888519332,2,0.0,1,9
183.72073221555456,5,Quaternary,101,34,1.2768014667126408,189.98231844611743,2,192.0025875669544,2,1.0,2,9
198.69833847582916,5,Ternary,39,13,0.8111484332921464,204.59267654064024,2,206.61297902477645,2,1.0,1,9
213.02493621123085,5,Binary,11,4,0.7505056874997535,218.86894298948027,2,220.88938515951716,2,1.0,3,9
227.3513825285827,5,Null,114,38,0.7322713612843472,233.3458651188066,2,235.3661712692392,2,1.0,2,9
248.9913844643875,5,Binary,16,6,0.4220806698649539,255.18616967073376,2,257.2066312721431,2,1.0,4,9
263.35136529698866,5,Ternary,40,14,0.5847208873792624,269.54618643304184,2,271.5665384121821,2,1.0,3,9
277.76131775245403,5,Null,138,46,,283.7055786783849,2,285.7261194718008,2,0.0,999,9
292.5887807338572,5,Quaternary,88,30,1.4632304498136364,298.53310068716337,2,300.5534057377067,2,1.0,4,9
307.1991729249389,5,Null,118,40,1.1527966829289653,312.99318938221086,2,315.01349223297666,2,1.0,1,9
321.45879328725687,5,Binary,9,3,1.0664388993072862,327.4532777106292,2,329.4735691958749,2,1.0,3,9
335.6684500925635,5,Ternary,72,24,1.076522681517872,341.6127949766865,2,343.6331920512748,2,0.0,4,9
349.6609253853903,5,Quaternary,83,28,0.946730281897544,355.82236965694847,2,357.84280229461456,2,0.0,3,9
371.3009947810529,5,Ternary,65,22,0.6363390440528747,377.11168885499774,2,379.1321046276989,2,1.0,2,9
385.6607933987125,5,Quaternary,77,26,0.726352125399444,391.4883278728994,2,393.5086607872972,2,0.0,2,9
400.2210988452157,5,Null,122,41,0.5543815496293973,406.2490041286428,2,408.28607552023686,2,1.0,4,9
414.6478748359591,5,Quaternary,99,33,1.1165373760345574,420.8426032147081,2,422.86298159118405,2,1.0,4,9
429.2247787071283,5,Binary,25,9,0.5422373087212691,434.9854996916906,2,437.0059040988722,2,1.0,3,9
443.3342675227241,5,Ternary,47,16,0.6066189438020047,449.428903804102,2,451.4491787910133,2,0.0,2,9
457.7107584222426,5,Null,117,39,0.9415945335990727,463.68861729035416,2,465.7088556142994,2,1.0,3,9
471.9705763979482,5,Binary,7,3,0.6913532912817573,477.93159706559527,2,479.9520040391849,2,1.0,1,9
493.2933454197951,5,Quaternary,103,35,1.3065039687398894,499.47143027843,2,501.4918401850568,2,0.0,1,9
507.8201086518261,5,Binary,28,10,0.7047503057428912,513.6308595533683,2,515.6513600175217,2,1.0,2,9
522.1467085870058,5,Ternary,41,14,0.5365743469701556,528.1077211888005,2,530.1280398046415,2,1.0,4,9
536.9073441468568,5,Null,115,39,0.6217706478232685,543.2022342826122,2,545.2227248477648,2,1.0,1,9
551.5010004271494,5,Ternary,54,18,0.3717919123437241,557.4118474589891,2,559.4322525994303,2,1.0,4,9
566.061267010909,5,Quaternary,95,32,1.761638763801329,571.8887406245722,2,573.9090170780023,2,0.0,1,9
580.1039115399881,5,Null,110,37,0.5861382776502069,586.281899975022,2,588.3024033722122,2,1.0,4,9
594.8310492475553,5,Binary,18,6,0.5316622427649236,600.6920482107266,2,602.7123818583837,2,1.0,2,9
616.4210810270142,5,Null,124,42,1.0068425145695985,622.3319284254835,2,624.3523016691443,2,1.0,3,9
630.3468421868547,5,Ternary,52,18,0.5468993714976023,636.3746059512318,2,638.3950624198255,2,1.0,2,9
644.289269597848,5,Quaternary,94,32,1.6819884698375065,650.1501362077115,2,652.1705670122287,2,1.0,2,9
658.3820265355812,5,Null,129,43,0.6723193457746675,664.2094649527967,2,666.2298733929047,2,1.0,1,9
672.4414018426332,5,Binary,3,1,0.4966608422396348,678.535885606072,2,680.5562720484004,2,1.0,3,9
686.7844597833187,5,Quaternary,74,25,0.6483795287667817,692.8456704384562,2,694.866067513045,2,0.0,3,9
701.1110234221619,5,Ternary,71,24,0.5138077448787044,707.1889644886437,2,709.209265139631,2,1.0,2,9
715.3038768568217,5,Binary,35,12,0.5718664848168373,721.2315991187215,2,723.2519349661566,2,1.0,1,9
4.795735478558527,5,Quaternary,85,29,0.5263046835211753,10.62317682881121,2,12.643571703622,2,0.0,2,9
19.539762348113072,5,Binary,2,1,0.4314128612691092,25.767848893244263,2,27.788258799871077,2,1.0,2,9
34.033090054902914,5,Null,132,44,0.6715226595201784,39.92737972459918,2,41.94777679918752,2,1.0,4,9
48.44322655845872,5,Ternary,42,14,0.5617343074914061,54.70486595032253,2,56.7250602787085,2,1.0,1,9
63.38753514624523,5,Binary,10,4,0.3773921804231577,69.54893322246608,2,71.56933139694365,2,1.0,2,9
78.11467248718282,5,Null,137,46,0.5578454666710968,84.2760712966633,2,86.29662565537637,2,1.0,1,9
92.7083397663655,5,Quaternary,93,31,1.1751654918366512,98.93661952532877,2,100.95693410824332,2,0.0,2,9
106.9848463576336,5,Ternary,68,23,0.5268406960863103,112.96256627310368,2,114.98297397995248,2,1.0,3,9
128.4744927359925,5,Null,131,44,1.4072285022771212,134.2852447374239,2,136.30563191301144,2,1.0,3,9
142.7843017659343,5,Quaternary,84,28,0.7515755128520141,148.62849809171848,2,150.64885007085877,2,0.0,1,9
157.02740436211252,5,Binary,34,12,0.633472366730075,162.7712710145047,2,164.7917670791021,2,1.0,4,9
171.8882302760835,5,Ternary,60,20,0.546584803247697,178.03291480592495,2,180.0532374546924,2,1.0,1,9
186.36501528591637,5,Quaternary,108,36,1.482651922873174,192.4595687089909,2,194.4799375530956,2,0.0,3,9
201.00866628674203,5,Null,116,39,0.8102454244353794,206.8696036561305,2,208.8899186056747,2,1.0,2,9
215.1015372462998,5,Ternary,51,17,0.5470016611725441,221.06251905120325,2,223.08289009508556,2,1.0,1,9
229.4112799162731,5,Binary,13,5,0.5781083548035895,235.48910476115225,2,237.5095758949324,2,1.0,2,9
250.93441241476603,5,Ternary,43,15,0.7436647446456846,257.1125962634096,2,259.1328587849125,2,1.0,2,9
265.3610307547551,5,Quaternary,86,29,0.3784499069965932,271.3054595970707,2,273.3257635477253,2,1.0,4,9
279.2868802723437,5,Ternary,46,16,1.1797531287916172,285.41489195169834,2,287.4352857266199,2,1.0,2,9
293.7636597827318,5,Null,140,47,0.8500339084512234,299.9082658538259,2,301.928805180723,2,1.0,3,9
308.30709989817615,5,Quaternary,78,26,1.192483610528143,314.1514069461182,2,316.17177725674173,2,1.0,2,9
322.7673088477532,5,Binary,1,1,0.4468795001694161,329.02879315527025,2,331.0492338587883,2,1.0,1,9
337.3275244699894,5,Null,142,48,0.55466018817242,343.2217672110887,2,345.24221744697843,2,0.0,4,9
351.3201515474966,5,Binary,17,6,0.5569523568160548,357.398024420861,2,359.4183969312626,2,1.0,1,9
372.4591925469581,5,Binary,21,7,0.6924183504484063,378.2866716600665,2,380.30696717823866,2,1.0,1,9
386.8524505207865,5,Quaternary,76,26,1.962672439469316,393.11412914202447,2,395.1344902869064,2,0.0,1,9
401.16231161214046,5,Ternary,57,19,1.95576696979424,406.9397043473005,2,408.95997420139656,2,1.0,1,9
415.58899081265326,5,Null,111,37,0.5366667376447367,421.8004459364493,2,423.8208327454077,2,1.0,1,9
430.0824637047895,5,Ternary,49,17,0.4715606423533245,435.8932388038893,2,437.9136179136244,2,1.0,3,9
444.14170189234846,5,Binary,26,9,0.548658827242889,450.05276376916936,2,452.0730380228215,2,1.0,4,9
458.284532009362,5,Null,112,38,0.4714249893781925,464.2956034918802,2,466.31605409439953,2,1.0,4,9
473.0284661216119,5,Quaternary,82,28,1.6885207105169684,478.889410456964,2,480.9098042318851,2,0.0,2,9
494.785467648258,5,Ternary,55,19,0.9946876414014696,500.8632591298378,2,502.8836815018726,2,1.0,3,9
508.9950830244129,5,Quaternary,96,32,1.6885995358934451,514.9560978259856,2,516.9765157984643,2,0.0,3,9
523.371574290561,5,Binary,15,5,0.3142262893006773,529.4829798460264,2,531.5033061610907,2,1.0,4,9
538.0989759714844,5,Null,119,40,1.5419414385851269,544.0598851837144,2,546.0802375294847,2,1.0,2,9
552.4755053671174,5,Quaternary,81,27,0.7221435835153898,558.4365286011721,2,560.4568354848648,2,0.0,4,9
566.7518081122939,5,Ternary,64,22,0.4725014140649364,573.0468782632129,2,575.0671935793875,2,1.0,1,9
581.3120985269811,5,Binary,4,2,1.3772011663695594,587.2898976344582,2,589.3103086409742,2,1.0,3,9
595.6387347584973,5,Null,139,47,0.5614087403519079,601.7332881815723,2,603.7535789335593,2,1.0,2,9
616.8278595694997,5,Ternary,62,21,0.5770487950821916,622.6886007920198,2,624.7090400290194,2,1.0,4,9
631.1041725803066,5,Null,144,48,0.5726327408092402,636.9817413710302,2,639.0022033390692,2,1.0,4,9
645.0300895577534,5,Binary,36,12,0.4211860934901779,651.0578437897598,2,653.0781077777806,2,1.0,2,9
659.4400075500303,5,Quaternary,102,34,0.8323183632073778,665.4344270799525,2,667.4548446858021,2,1.0,3,9
673.5828318009694,5,Binary,5,2,0.5761897817847057,679.6273017791332,2,681.6477725462832,2,1.0,4,9
687.9426315185178,5,Null,113,38,0.5560555806641787,693.7199784249701,2,695.7405412161656,2,1.0,1,9
702.0855507265392,5,Ternary,56,19,0.374998088733264,708.1467621149363,2,710.167030135884,2,1.0,4,9
716.4119453491089,5,Quaternary,87,29,0.4469832563636373,722.6234433685754,2,724.6438870051311,2,0.0,4,9
4.632864142029575,5,Binary,24,8,0.9205981618433724,10.47720968608337,2,12.614366575715394,2,1.0,1,11
19.20989780009768,5,Quaternary,98,33,1.0069420135369,25.471576421336067,2,27.491887337953813,2,1.0,1,11
34.00403634504619,5,Ternary,44,15,1.237641894895205,40.215587159185816,2,42.23592923932301,2,1.0,1,11
48.414007498624414,5,Null,124,42,0.8010856913024327,54.49183967609861,2,56.51222868483456,2,1.0,1,11
62.406530086678686,5,Ternary,57,19,1.209669518240844,68.35088340328366,2,70.37121998397924,2,1.0,3,11
76.43244603756102,5,Binary,33,11,0.766904807958781,82.6273467322535,2,84.64775700551036,2,1.0,1,11
91.00950645959892,5,Quaternary,96,32,1.2820759433525382,96.78685886549285,2,98.80729296967912,2,1.0,2,11
